instr_done_touch.x,instr_done_touch.y,instr_done_touch.leftButton,instr_done_touch.midButton,instr_done_touch.rightButton,instr_done_touch.clicked_name,key_resp.keys,key_resp.corr,key_resp.rt,key_resp.duration,touch_resp.x,touch_resp.y,touch_resp.leftButton,touch_resp.midButton,touch_resp.rightButton,touch_resp.time,touch_resp.clicked_name,rt,corr,trials.thisRepN,trials.thisTrialN,trials.thisN,trials.thisIndex,trials.ran,stimImage,stimWord,CorrAns,participant,date,expName,psychopyVersion,OS,frameRate,return_tic
0.018888889,-0.402222222,1,0,0,instr_done_button,a,1,0.739,,,,,,,,,0.739,1,0,0,0,6,1,stimuli/blank.png,begabt,a,,2023-07-30_12h21.17.776,openIAT,2023.1.3,MacIntel,58.82352941,
,,,,,,a,1,0.564,,,,,,,,,0.564,1,0,1,1,10,1,stimuli/blank.png,aktiv,a,,2023-07-30_12h21.17.776,openIAT,2023.1.3,MacIntel,58.82352941,
,,,,,,l,1,0.685,,,,,,,,,0.685,1,0,2,2,3,1,stimuli/blank.png,verlogen,l,,2023-07-30_12h21.17.776,openIAT,2023.1.3,MacIntel,58.82352941,
,,,,,,a,1,1.015,,,,,,,,,1.015,1,0,3,3,16,1,stimuli/blank.png,begabt,a,,2023-07-30_12h21.17.776,openIAT,2023.1.3,MacIntel,58.82352941,
,,,,,,l,1,0.664,,,,,,,,,0.664,1,0,4,4,9,1,stimuli/blank.png,lustlos,l,,2023-07-30_12h21.17.776,openIAT,2023.1.3,MacIntel,58.82352941,
,,,,,,a,1,0.798,,,,,,,,,0.798,1,0,5,5,4,1,stimuli/blank.png,gerecht,a,,2023-07-30_12h21.17.776,openIAT,2023.1.3,MacIntel,58.82352941,
,,,,,,l,1,1.249,,,,,,,,,1.249,1,0,6,6,1,1,stimuli/blank.png,brutal,l,,2023-07-30_12h21.17.776,openIAT,2023.1.3,MacIntel,58.82352941,
,,,,,,a,1,0.648,,,,,,,,,0.648,1,0,7,7,0,1,stimuli/blank.png,aktiv,a,,2023-07-30_12h21.17.776,openIAT,2023.1.3,MacIntel,58.82352941,
,,,,,,a,1,0.532,,,,,,,,,0.532,1,0,8,8,18,1,stimuli/blank.png,human,a,,2023-07-30_12h21.17.776,openIAT,2023.1.3,MacIntel,58.82352941,
,,,,,,a,1,0.515,,,,,,,,,0.515,1,0,9,9,14,1,stimuli/blank.png,gerecht,a,,2023-07-30_12h21.17.776,openIAT,2023.1.3,MacIntel,58.82352941,
,,,,,,a,1,0.482,,,,,,,,,0.482,1,0,10,10,12,1,stimuli/blank.png,fröhlich,a,,2023-07-30_12h21.17.776,openIAT,2023.1.3,MacIntel,58.82352941,
,,,,,,l,1,0.667,,,,,,,,,0.667,1,0,11,11,11,1,stimuli/blank.png,brutal,l,,2023-07-30_12h21.17.776,openIAT,2023.1.3,MacIntel,58.82352941,
,,,,,,l,1,0.798,,,,,,,,,0.798,1,0,12,12,5,1,stimuli/blank.png,träge,l,,2023-07-30_12h21.17.776,openIAT,2023.1.3,MacIntel,58.82352941,
,,,,,,l,1,0.582,,,,,,,,,0.582,1,0,13,13,19,1,stimuli/blank.png,lustlos,l,,2023-07-30_12h21.17.776,openIAT,2023.1.3,MacIntel,58.82352941,
,,,,,,a,1,0.498,,,,,,,,,0.498,1,0,14,14,8,1,stimuli/blank.png,human,a,,2023-07-30_12h21.17.776,openIAT,2023.1.3,MacIntel,58.82352941,
,,,,,,l,1,0.514,,,,,,,,,0.514,1,0,15,15,7,1,stimuli/blank.png,eitel,l,,2023-07-30_12h21.17.776,openIAT,2023.1.3,MacIntel,58.82352941,
,,,,,,l,1,0.615,,,,,,,,,0.615,1,0,16,16,15,1,stimuli/blank.png,träge,l,,2023-07-30_12h21.17.776,openIAT,2023.1.3,MacIntel,58.82352941,
,,,,,,l,1,0.865,,,,,,,,,0.865,1,0,17,17,17,1,stimuli/blank.png,eitel,l,,2023-07-30_12h21.17.776,openIAT,2023.1.3,MacIntel,58.82352941,
,,,,,,a,1,0.881,,,,,,,,,0.881,1,0,18,18,2,1,stimuli/blank.png,fröhlich,a,,2023-07-30_12h21.17.776,openIAT,2023.1.3,MacIntel,58.82352941,
,,,,,,l,1,0.548,,,,,,,,,0.548,1,0,19,19,13,1,stimuli/blank.png,verlogen,l,,2023-07-30_12h21.17.776,openIAT,2023.1.3,MacIntel,58.82352941,
,,,,,,a,1,0.523,,,,,,,,,0.523,1,0,0,0,15,1,stimuli/blank.png,meine,a,,2023-07-30_12h21.17.776,openIAT,2023.1.3,MacIntel,58.82352941,
,,,,,,l,1,0.619,,,,,,,,,0.619,1,0,1,1,16,1,stimuli/blank.png,euch,l,,2023-07-30_12h21.17.776,openIAT,2023.1.3,MacIntel,58.82352941,
,,,,,,a,1,0.515,,,,,,,,,0.515,1,0,2,2,13,1,stimuli/blank.png,mir,a,,2023-07-30_12h21.17.776,openIAT,2023.1.3,MacIntel,58.82352941,
,,,,,,a,1,0.498,,,,,,,,,0.498,1,0,3,3,9,1,stimuli/blank.png,selbst,a,,2023-07-30_12h21.17.776,openIAT,2023.1.3,MacIntel,58.82352941,
,,,,,,l,1,0.516,,,,,,,,,0.516,1,0,4,4,2,1,stimuli/blank.png,ihr,l,,2023-07-30_12h21.17.776,openIAT,2023.1.3,MacIntel,58.82352941,
,,,,,,l,1,0.798,,,,,,,,,0.798,1,0,5,5,6,1,stimuli/blank.png,euch,l,,2023-07-30_12h21.17.776,openIAT,2023.1.3,MacIntel,58.82352941,
,,,,,,l,1,0.585,,,,,,,,,0.585,1,0,6,6,10,1,stimuli/blank.png,andere,l,,2023-07-30_12h21.17.776,openIAT,2023.1.3,MacIntel,58.82352941,
,,,,,,l,1,1.134,,,,,,,,,1.134,1,0,7,7,14,1,stimuli/blank.png,jene,l,,2023-07-30_12h21.17.776,openIAT,2023.1.3,MacIntel,58.82352941,
,,,,,,a,1,0.515,,,,,,,,,0.515,1,0,8,8,3,1,stimuli/blank.png,mir,a,,2023-07-30_12h21.17.776,openIAT,2023.1.3,MacIntel,58.82352941,
,,,,,,a,1,0.583,,,,,,,,,0.583,1,0,9,9,1,1,stimuli/blank.png,ich,a,,2023-07-30_12h21.17.776,openIAT,2023.1.3,MacIntel,58.82352941,
,,,,,,l,1,0.751,,,,,,,,,0.751,1,0,10,10,0,1,stimuli/blank.png,andere,l,,2023-07-30_12h21.17.776,openIAT,2023.1.3,MacIntel,58.82352941,
,,,,,,a,0,1.238,,,,,,,,,1.238,0,0,11,11,18,1,stimuli/blank.png,eure,l,,2023-07-30_12h21.17.776,openIAT,2023.1.3,MacIntel,58.82352941,
,,,,,,l,1,1.101,,,,,,,,,1.101,1,0,12,12,4,1,stimuli/blank.png,jene,l,,2023-07-30_12h21.17.776,openIAT,2023.1.3,MacIntel,58.82352941,
,,,,,,a,1,0.618,,,,,,,,,0.618,1,0,13,13,7,1,stimuli/blank.png,eigene,a,,2023-07-30_12h21.17.776,openIAT,2023.1.3,MacIntel,58.82352941,
,,,,,,l,1,0.767,,,,,,,,,0.767,1,0,14,14,12,1,stimuli/blank.png,ihr,l,,2023-07-30_12h21.17.776,openIAT,2023.1.3,MacIntel,58.82352941,
,,,,,,l,1,0.597,,,,,,,,,0.597,1,0,15,15,8,1,stimuli/blank.png,eure,l,,2023-07-30_12h21.17.776,openIAT,2023.1.3,MacIntel,58.82352941,
,,,,,,a,1,0.566,,,,,,,,,0.566,1,0,16,16,17,1,stimuli/blank.png,eigene,a,,2023-07-30_12h21.17.776,openIAT,2023.1.3,MacIntel,58.82352941,
,,,,,,a,1,0.482,,,,,,,,,0.482,1,0,17,17,5,1,stimuli/blank.png,meine,a,,2023-07-30_12h21.17.776,openIAT,2023.1.3,MacIntel,58.82352941,
,,,,,,a,1,0.452,,,,,,,,,0.452,1,0,18,18,11,1,stimuli/blank.png,ich,a,,2023-07-30_12h21.17.776,openIAT,2023.1.3,MacIntel,58.82352941,
,,,,,,a,1,0.47,,,,,,,,,0.47,1,0,19,19,19,1,stimuli/blank.png,selbst,a,,2023-07-30_12h21.17.776,openIAT,2023.1.3,MacIntel,58.82352941,
,,,,,,l,1,0.807,,,,,,,,,0.807,1,0,0,0,19,1,stimuli/blank.png,lustlos,l,,2023-07-30_12h21.17.776,openIAT,2023.1.3,MacIntel,58.82352941,
,,,,,,l,1,0.801,,,,,,,,,0.801,1,0,1,1,13,1,stimuli/blank.png,verlogen,l,,2023-07-30_12h21.17.776,openIAT,2023.1.3,MacIntel,58.82352941,
,,,,,,a,1,0.651,,,,,,,,,0.651,1,0,2,2,16,1,stimuli/blank.png,begabt,a,,2023-07-30_12h21.17.776,openIAT,2023.1.3,MacIntel,58.82352941,
,,,,,,l,1,0.585,,,,,,,,,0.585,1,0,3,3,11,1,stimuli/blank.png,brutal,l,,2023-07-30_12h21.17.776,openIAT,2023.1.3,MacIntel,58.82352941,
,,,,,,l,1,0.535,,,,,,,,,0.535,1,0,4,4,15,1,stimuli/blank.png,träge,l,,2023-07-30_12h21.17.776,openIAT,2023.1.3,MacIntel,58.82352941,
,,,,,,a,1,0.703,,,,,,,,,0.703,1,0,5,5,14,1,stimuli/blank.png,gerecht,a,,2023-07-30_12h21.17.776,openIAT,2023.1.3,MacIntel,58.82352941,
,,,,,,a,1,0.45,,,,,,,,,0.45,1,0,6,6,12,1,stimuli/blank.png,fröhlich,a,,2023-07-30_12h21.17.776,openIAT,2023.1.3,MacIntel,58.82352941,
,,,,,,a,0,0.382,,,,,,,,,0.382,0,0,7,7,6,1,stimuli/blank.png,euch,l,,2023-07-30_12h21.17.776,openIAT,2023.1.3,MacIntel,58.82352941,
,,,,,,a,1,0.553,,,,,,,,,0.553,1,0,8,8,1,1,stimuli/blank.png,ich,a,,2023-07-30_12h21.17.776,openIAT,2023.1.3,MacIntel,58.82352941,
,,,,,,a,1,0.617,,,,,,,,,0.617,1,0,9,9,18,1,stimuli/blank.png,human,a,,2023-07-30_12h21.17.776,openIAT,2023.1.3,MacIntel,58.82352941,
,,,,,,l,1,0.534,,,,,,,,,0.534,1,0,10,10,8,1,stimuli/blank.png,eure,l,,2023-07-30_12h21.17.776,openIAT,2023.1.3,MacIntel,58.82352941,
,,,,,,l,1,0.483,,,,,,,,,0.483,1,0,11,11,17,1,stimuli/blank.png,eitel,l,,2023-07-30_12h21.17.776,openIAT,2023.1.3,MacIntel,58.82352941,
,,,,,,a,1,0.452,,,,,,,,,0.452,1,0,12,12,9,1,stimuli/blank.png,selbst,a,,2023-07-30_12h21.17.776,openIAT,2023.1.3,MacIntel,58.82352941,
,,,,,,l,1,0.532,,,,,,,,,0.532,1,0,13,13,4,1,stimuli/blank.png,jene,l,,2023-07-30_12h21.17.776,openIAT,2023.1.3,MacIntel,58.82352941,
,,,,,,a,1,0.431,,,,,,,,,0.431,1,0,14,14,7,1,stimuli/blank.png,eigene,a,,2023-07-30_12h21.17.776,openIAT,2023.1.3,MacIntel,58.82352941,
,,,,,,l,1,0.58,,,,,,,,,0.58,1,0,15,15,0,1,stimuli/blank.png,andere,l,,2023-07-30_12h21.17.776,openIAT,2023.1.3,MacIntel,58.82352941,
,,,,,,a,1,0.432,,,,,,,,,0.432,1,0,16,16,5,1,stimuli/blank.png,meine,a,,2023-07-30_12h21.17.776,openIAT,2023.1.3,MacIntel,58.82352941,
,,,,,,l,1,0.768,,,,,,,,,0.768,1,0,17,17,2,1,stimuli/blank.png,ihr,l,,2023-07-30_12h21.17.776,openIAT,2023.1.3,MacIntel,58.82352941,
,,,,,,a,1,0.582,,,,,,,,,0.582,1,0,18,18,10,1,stimuli/blank.png,aktiv,a,,2023-07-30_12h21.17.776,openIAT,2023.1.3,MacIntel,58.82352941,
,,,,,,a,1,0.387,,,,,,,,,0.387,1,0,19,19,3,1,stimuli/blank.png,mir,a,,2023-07-30_12h21.17.776,openIAT,2023.1.3,MacIntel,58.82352941,
,,,,,,a,0,0.453,,,,,,,,,0.453,0,0,0,0,33,1,stimuli/blank.png,verlogen,l,,2023-07-30_12h21.17.776,openIAT,2023.1.3,MacIntel,58.82352941,
,,,,,,l,1,0.653,,,,,,,,,0.653,1,0,1,1,13,1,stimuli/blank.png,verlogen,l,,2023-07-30_12h21.17.776,openIAT,2023.1.3,MacIntel,58.82352941,
,,,,,,a,1,0.635,,,,,,,,,0.635,1,0,2,2,38,1,stimuli/blank.png,human,a,,2023-07-30_12h21.17.776,openIAT,2023.1.3,MacIntel,58.82352941,
,,,,,,a,1,0.42,,,,,,,,,0.42,1,0,3,3,21,1,stimuli/blank.png,ich,a,,2023-07-30_12h21.17.776,openIAT,2023.1.3,MacIntel,58.82352941,
,,,,,,a,0,0.418,,,,,,,,,0.418,0,0,4,4,4,1,stimuli/blank.png,jene,l,,2023-07-30_12h21.17.776,openIAT,2023.1.3,MacIntel,58.82352941,
,,,,,,a,1,0.516,,,,,,,,,0.516,1,0,5,5,12,1,stimuli/blank.png,fröhlich,a,,2023-07-30_12h21.17.776,openIAT,2023.1.3,MacIntel,58.82352941,
,,,,,,a,1,0.868,,,,,,,,,0.868,1,0,6,6,34,1,stimuli/blank.png,gerecht,a,,2023-07-30_12h21.17.776,openIAT,2023.1.3,MacIntel,58.82352941,
,,,,,,l,1,0.449,,,,,,,,,0.449,1,0,7,7,28,1,stimuli/blank.png,eure,l,,2023-07-30_12h21.17.776,openIAT,2023.1.3,MacIntel,58.82352941,
,,,,,,a,1,0.52,,,,,,,,,0.52,1,0,8,8,32,1,stimuli/blank.png,fröhlich,a,,2023-07-30_12h21.17.776,openIAT,2023.1.3,MacIntel,58.82352941,
,,,,,,l,1,0.581,,,,,,,,,0.581,1,0,9,9,8,1,stimuli/blank.png,eure,l,,2023-07-30_12h21.17.776,openIAT,2023.1.3,MacIntel,58.82352941,
,,,,,,a,1,0.502,,,,,,,,,0.502,1,0,10,10,9,1,stimuli/blank.png,selbst,a,,2023-07-30_12h21.17.776,openIAT,2023.1.3,MacIntel,58.82352941,
,,,,,,l,1,0.535,,,,,,,,,0.535,1,0,11,11,6,1,stimuli/blank.png,euch,l,,2023-07-30_12h21.17.776,openIAT,2023.1.3,MacIntel,58.82352941,
,,,,,,a,1,0.568,,,,,,,,,0.568,1,0,12,12,16,1,stimuli/blank.png,begabt,a,,2023-07-30_12h21.17.776,openIAT,2023.1.3,MacIntel,58.82352941,
,,,,,,l,0,0.683,,,,,,,,,0.683,0,0,13,13,7,1,stimuli/blank.png,eigene,a,,2023-07-30_12h21.17.776,openIAT,2023.1.3,MacIntel,58.82352941,
,,,,,,a,1,0.62,,,,,,,,,0.62,1,0,14,14,36,1,stimuli/blank.png,begabt,a,,2023-07-30_12h21.17.776,openIAT,2023.1.3,MacIntel,58.82352941,
,,,,,,a,1,0.453,,,,,,,,,0.453,1,0,15,15,25,1,stimuli/blank.png,meine,a,,2023-07-30_12h21.17.776,openIAT,2023.1.3,MacIntel,58.82352941,
,,,,,,l,1,0.55,,,,,,,,,0.55,1,0,16,16,31,1,stimuli/blank.png,brutal,l,,2023-07-30_12h21.17.776,openIAT,2023.1.3,MacIntel,58.82352941,
,,,,,,l,1,0.532,,,,,,,,,0.532,1,0,17,17,17,1,stimuli/blank.png,eitel,l,,2023-07-30_12h21.17.776,openIAT,2023.1.3,MacIntel,58.82352941,
,,,,,,a,1,0.565,,,,,,,,,0.565,1,0,18,18,18,1,stimuli/blank.png,human,a,,2023-07-30_12h21.17.776,openIAT,2023.1.3,MacIntel,58.82352941,
,,,,,,a,1,0.415,,,,,,,,,0.415,1,0,19,19,23,1,stimuli/blank.png,mir,a,,2023-07-30_12h21.17.776,openIAT,2023.1.3,MacIntel,58.82352941,
,,,,,,a,1,0.549,,,,,,,,,0.549,1,0,20,20,14,1,stimuli/blank.png,gerecht,a,,2023-07-30_12h21.17.776,openIAT,2023.1.3,MacIntel,58.82352941,
,,,,,,l,1,0.535,,,,,,,,,0.535,1,0,21,21,19,1,stimuli/blank.png,lustlos,l,,2023-07-30_12h21.17.776,openIAT,2023.1.3,MacIntel,58.82352941,
,,,,,,l,1,0.701,,,,,,,,,0.701,1,0,22,22,22,1,stimuli/blank.png,ihr,l,,2023-07-30_12h21.17.776,openIAT,2023.1.3,MacIntel,58.82352941,
,,,,,,a,1,0.533,,,,,,,,,0.533,1,0,23,23,3,1,stimuli/blank.png,mir,a,,2023-07-30_12h21.17.776,openIAT,2023.1.3,MacIntel,58.82352941,
,,,,,,l,1,0.585,,,,,,,,,0.585,1,0,24,24,15,1,stimuli/blank.png,träge,l,,2023-07-30_12h21.17.776,openIAT,2023.1.3,MacIntel,58.82352941,
,,,,,,a,1,0.671,,,,,,,,,0.671,1,0,25,25,30,1,stimuli/blank.png,aktiv,a,,2023-07-30_12h21.17.776,openIAT,2023.1.3,MacIntel,58.82352941,
,,,,,,a,1,0.568,,,,,,,,,0.568,1,0,26,26,5,1,stimuli/blank.png,meine,a,,2023-07-30_12h21.17.776,openIAT,2023.1.3,MacIntel,58.82352941,
,,,,,,l,1,0.485,,,,,,,,,0.485,1,0,27,27,39,1,stimuli/blank.png,lustlos,l,,2023-07-30_12h21.17.776,openIAT,2023.1.3,MacIntel,58.82352941,
,,,,,,l,1,0.484,,,,,,,,,0.484,1,0,28,28,20,1,stimuli/blank.png,andere,l,,2023-07-30_12h21.17.776,openIAT,2023.1.3,MacIntel,58.82352941,
,,,,,,a,1,0.533,,,,,,,,,0.533,1,0,29,29,27,1,stimuli/blank.png,eigene,a,,2023-07-30_12h21.17.776,openIAT,2023.1.3,MacIntel,58.82352941,
,,,,,,l,1,0.586,,,,,,,,,0.586,1,0,30,30,26,1,stimuli/blank.png,euch,l,,2023-07-30_12h21.17.776,openIAT,2023.1.3,MacIntel,58.82352941,
,,,,,,a,0,0.582,,,,,,,,,0.582,0,0,31,31,2,1,stimuli/blank.png,ihr,l,,2023-07-30_12h21.17.776,openIAT,2023.1.3,MacIntel,58.82352941,
,,,,,,l,1,0.586,,,,,,,,,0.586,1,0,32,32,35,1,stimuli/blank.png,träge,l,,2023-07-30_12h21.17.776,openIAT,2023.1.3,MacIntel,58.82352941,
,,,,,,a,1,0.553,,,,,,,,,0.553,1,0,33,33,1,1,stimuli/blank.png,ich,a,,2023-07-30_12h21.17.776,openIAT,2023.1.3,MacIntel,58.82352941,
,,,,,,a,1,0.518,,,,,,,,,0.518,1,0,34,34,29,1,stimuli/blank.png,selbst,a,,2023-07-30_12h21.17.776,openIAT,2023.1.3,MacIntel,58.82352941,
,,,,,,l,1,0.515,,,,,,,,,0.515,1,0,35,35,11,1,stimuli/blank.png,brutal,l,,2023-07-30_12h21.17.776,openIAT,2023.1.3,MacIntel,58.82352941,
,,,,,,l,1,0.502,,,,,,,,,0.502,1,0,36,36,0,1,stimuli/blank.png,andere,l,,2023-07-30_12h21.17.776,openIAT,2023.1.3,MacIntel,58.82352941,
,,,,,,l,1,0.749,,,,,,,,,0.749,1,0,37,37,24,1,stimuli/blank.png,jene,l,,2023-07-30_12h21.17.776,openIAT,2023.1.3,MacIntel,58.82352941,
,,,,,,a,1,0.632,,,,,,,,,0.632,1,0,38,38,10,1,stimuli/blank.png,aktiv,a,,2023-07-30_12h21.17.776,openIAT,2023.1.3,MacIntel,58.82352941,
,,,,,,l,1,0.666,,,,,,,,,0.666,1,0,39,39,37,1,stimuli/blank.png,eitel,l,,2023-07-30_12h21.17.776,openIAT,2023.1.3,MacIntel,58.82352941,
,,,,,,l,1,0.539,,,,,,,,,0.539,1,0,0,0,11,1,stimuli/blank.png,ich,l,,2023-07-30_12h21.17.776,openIAT,2023.1.3,MacIntel,58.82352941,
,,,,,,l,1,0.632,,,,,,,,,0.632,1,0,1,1,5,1,stimuli/blank.png,meine,l,,2023-07-30_12h21.17.776,openIAT,2023.1.3,MacIntel,58.82352941,
,,,,,,l,1,0.52,,,,,,,,,0.52,1,0,2,2,3,1,stimuli/blank.png,mir,l,,2023-07-30_12h21.17.776,openIAT,2023.1.3,MacIntel,58.82352941,
,,,,,,a,1,0.683,,,,,,,,,0.683,1,0,3,3,18,1,stimuli/blank.png,eure,a,,2023-07-30_12h21.17.776,openIAT,2023.1.3,MacIntel,58.82352941,
,,,,,,l,1,0.569,,,,,,,,,0.569,1,0,4,4,7,1,stimuli/blank.png,eigene,l,,2023-07-30_12h21.17.776,openIAT,2023.1.3,MacIntel,58.82352941,
,,,,,,l,1,0.481,,,,,,,,,0.481,1,0,5,5,1,1,stimuli/blank.png,ich,l,,2023-07-30_12h21.17.776,openIAT,2023.1.3,MacIntel,58.82352941,
,,,,,,l,1,0.566,,,,,,,,,0.566,1,0,6,6,19,1,stimuli/blank.png,selbst,l,,2023-07-30_12h21.17.776,openIAT,2023.1.3,MacIntel,58.82352941,
,,,,,,l,1,0.435,,,,,,,,,0.435,1,0,7,7,13,1,stimuli/blank.png,mir,l,,2023-07-30_12h21.17.776,openIAT,2023.1.3,MacIntel,58.82352941,
,,,,,,a,1,0.402,,,,,,,,,0.402,1,0,8,8,10,1,stimuli/blank.png,andere,a,,2023-07-30_12h21.17.776,openIAT,2023.1.3,MacIntel,58.82352941,
,,,,,,a,1,0.455,,,,,,,,,0.455,1,0,9,9,0,1,stimuli/blank.png,andere,a,,2023-07-30_12h21.17.776,openIAT,2023.1.3,MacIntel,58.82352941,
,,,,,,a,1,0.503,,,,,,,,,0.503,1,0,10,10,16,1,stimuli/blank.png,euch,a,,2023-07-30_12h21.17.776,openIAT,2023.1.3,MacIntel,58.82352941,
,,,,,,a,1,0.549,,,,,,,,,0.549,1,0,11,11,12,1,stimuli/blank.png,ihr,a,,2023-07-30_12h21.17.776,openIAT,2023.1.3,MacIntel,58.82352941,
,,,,,,l,1,0.466,,,,,,,,,0.466,1,0,12,12,17,1,stimuli/blank.png,eigene,l,,2023-07-30_12h21.17.776,openIAT,2023.1.3,MacIntel,58.82352941,
,,,,,,l,1,0.418,,,,,,,,,0.418,1,0,13,13,15,1,stimuli/blank.png,meine,l,,2023-07-30_12h21.17.776,openIAT,2023.1.3,MacIntel,58.82352941,
,,,,,,a,1,0.615,,,,,,,,,0.615,1,0,14,14,4,1,stimuli/blank.png,jene,a,,2023-07-30_12h21.17.776,openIAT,2023.1.3,MacIntel,58.82352941,
,,,,,,a,1,0.64,,,,,,,,,0.64,1,0,15,15,14,1,stimuli/blank.png,jene,a,,2023-07-30_12h21.17.776,openIAT,2023.1.3,MacIntel,58.82352941,
,,,,,,a,1,0.467,,,,,,,,,0.467,1,0,16,16,8,1,stimuli/blank.png,eure,a,,2023-07-30_12h21.17.776,openIAT,2023.1.3,MacIntel,58.82352941,
,,,,,,a,1,0.416,,,,,,,,,0.416,1,0,17,17,6,1,stimuli/blank.png,euch,a,,2023-07-30_12h21.17.776,openIAT,2023.1.3,MacIntel,58.82352941,
,,,,,,a,1,0.63,,,,,,,,,0.63,1,0,18,18,2,1,stimuli/blank.png,ihr,a,,2023-07-30_12h21.17.776,openIAT,2023.1.3,MacIntel,58.82352941,
,,,,,,l,1,0.518,,,,,,,,,0.518,1,0,19,19,9,1,stimuli/blank.png,selbst,l,,2023-07-30_12h21.17.776,openIAT,2023.1.3,MacIntel,58.82352941,
,,,,,,l,1,0.58,,,,,,,,,0.58,1,0,0,0,9,1,stimuli/blank.png,selbst,l,,2023-07-30_12h21.17.776,openIAT,2023.1.3,MacIntel,58.82352941,
,,,,,,l,1,0.469,,,,,,,,,0.469,1,0,1,1,13,1,stimuli/blank.png,verlogen,l,,2023-07-30_12h21.17.776,openIAT,2023.1.3,MacIntel,58.82352941,
,,,,,,a,1,0.416,,,,,,,,,0.416,1,0,2,2,16,1,stimuli/blank.png,begabt,a,,2023-07-30_12h21.17.776,openIAT,2023.1.3,MacIntel,58.82352941,
,,,,,,a,1,0.366,,,,,,,,,0.366,1,0,3,3,14,1,stimuli/blank.png,gerecht,a,,2023-07-30_12h21.17.776,openIAT,2023.1.3,MacIntel,58.82352941,
,,,,,,a,1,0.431,,,,,,,,,0.431,1,0,4,4,0,1,stimuli/blank.png,andere,a,,2023-07-30_12h21.17.776,openIAT,2023.1.3,MacIntel,58.82352941,
,,,,,,a,1,0.803,,,,,,,,,0.803,1,0,5,5,4,1,stimuli/blank.png,jene,a,,2023-07-30_12h21.17.776,openIAT,2023.1.3,MacIntel,58.82352941,
,,,,,,a,1,0.566,,,,,,,,,0.566,1,0,6,6,2,1,stimuli/blank.png,ihr,a,,2023-07-30_12h21.17.776,openIAT,2023.1.3,MacIntel,58.82352941,
,,,,,,a,1,0.515,,,,,,,,,0.515,1,0,7,7,8,1,stimuli/blank.png,eure,a,,2023-07-30_12h21.17.776,openIAT,2023.1.3,MacIntel,58.82352941,
,,,,,,a,1,0.449,,,,,,,,,0.449,1,0,8,8,18,1,stimuli/blank.png,human,a,,2023-07-30_12h21.17.776,openIAT,2023.1.3,MacIntel,58.82352941,
,,,,,,a,1,0.568,,,,,,,,,0.568,1,0,9,9,6,1,stimuli/blank.png,euch,a,,2023-07-30_12h21.17.776,openIAT,2023.1.3,MacIntel,58.82352941,
,,,,,,a,1,0.903,,,,,,,,,0.903,1,0,10,10,12,1,stimuli/blank.png,fröhlich,a,,2023-07-30_12h21.17.776,openIAT,2023.1.3,MacIntel,58.82352941,
,,,,,,l,1,0.581,,,,,,,,,0.581,1,0,11,11,15,1,stimuli/blank.png,träge,l,,2023-07-30_12h21.17.776,openIAT,2023.1.3,MacIntel,58.82352941,
,,,,,,l,0,0.432,,,,,,,,,0.432,0,0,12,12,10,1,stimuli/blank.png,aktiv,a,,2023-07-30_12h21.17.776,openIAT,2023.1.3,MacIntel,58.82352941,
,,,,,,l,1,0.799,,,,,,,,,0.799,1,0,13,13,3,1,stimuli/blank.png,mir,l,,2023-07-30_12h21.17.776,openIAT,2023.1.3,MacIntel,58.82352941,
,,,,,,l,1,0.782,,,,,,,,,0.782,1,0,14,14,17,1,stimuli/blank.png,eitel,l,,2023-07-30_12h21.17.776,openIAT,2023.1.3,MacIntel,58.82352941,
,,,,,,l,1,1.135,,,,,,,,,1.135,1,0,15,15,7,1,stimuli/blank.png,eigene,l,,2023-07-30_12h21.17.776,openIAT,2023.1.3,MacIntel,58.82352941,
,,,,,,a,0,0.42,,,,,,,,,0.42,0,0,16,16,19,1,stimuli/blank.png,lustlos,l,,2023-07-30_12h21.17.776,openIAT,2023.1.3,MacIntel,58.82352941,
,,,,,,l,1,0.751,,,,,,,,,0.751,1,0,17,17,11,1,stimuli/blank.png,brutal,l,,2023-07-30_12h21.17.776,openIAT,2023.1.3,MacIntel,58.82352941,
,,,,,,l,1,0.566,,,,,,,,,0.566,1,0,18,18,5,1,stimuli/blank.png,meine,l,,2023-07-30_12h21.17.776,openIAT,2023.1.3,MacIntel,58.82352941,
,,,,,,l,1,0.482,,,,,,,,,0.482,1,0,19,19,1,1,stimuli/blank.png,ich,l,,2023-07-30_12h21.17.776,openIAT,2023.1.3,MacIntel,58.82352941,
,,,,,,l,1,0.735,,,,,,,,,0.735,1,0,0,0,15,1,stimuli/blank.png,träge,l,,2023-07-30_12h21.17.776,openIAT,2023.1.3,MacIntel,58.82352941,
,,,,,,a,1,0.953,,,,,,,,,0.953,1,0,1,1,0,1,stimuli/blank.png,andere,a,,2023-07-30_12h21.17.776,openIAT,2023.1.3,MacIntel,58.82352941,
,,,,,,l,0,0.702,,,,,,,,,0.702,0,0,2,2,12,1,stimuli/blank.png,fröhlich,a,,2023-07-30_12h21.17.776,openIAT,2023.1.3,MacIntel,58.82352941,
,,,,,,a,1,1.502,,,,,,,,,1.502,1,0,3,3,4,1,stimuli/blank.png,jene,a,,2023-07-30_12h21.17.776,openIAT,2023.1.3,MacIntel,58.82352941,
,,,,,,l,1,0.52,,,,,,,,,0.52,1,0,4,4,29,1,stimuli/blank.png,selbst,l,,2023-07-30_12h21.17.776,openIAT,2023.1.3,MacIntel,58.82352941,
,,,,,,l,0,0.598,,,,,,,,,0.598,0,0,5,5,38,1,stimuli/blank.png,human,a,,2023-07-30_12h21.17.776,openIAT,2023.1.3,MacIntel,58.82352941,
,,,,,,a,1,0.649,,,,,,,,,0.649,1,0,6,6,6,1,stimuli/blank.png,euch,a,,2023-07-30_12h21.17.776,openIAT,2023.1.3,MacIntel,58.82352941,
,,,,,,a,1,0.417,,,,,,,,,0.417,1,0,7,7,10,1,stimuli/blank.png,aktiv,a,,2023-07-30_12h21.17.776,openIAT,2023.1.3,MacIntel,58.82352941,
,,,,,,l,1,0.535,,,,,,,,,0.535,1,0,8,8,17,1,stimuli/blank.png,eitel,l,,2023-07-30_12h21.17.776,openIAT,2023.1.3,MacIntel,58.82352941,
,,,,,,l,1,0.682,,,,,,,,,0.682,1,0,9,9,23,1,stimuli/blank.png,mir,l,,2023-07-30_12h21.17.776,openIAT,2023.1.3,MacIntel,58.82352941,
,,,,,,a,1,0.767,,,,,,,,,0.767,1,0,10,10,16,1,stimuli/blank.png,begabt,a,,2023-07-30_12h21.17.776,openIAT,2023.1.3,MacIntel,58.82352941,
,,,,,,l,1,0.565,,,,,,,,,0.565,1,0,11,11,13,1,stimuli/blank.png,verlogen,l,,2023-07-30_12h21.17.776,openIAT,2023.1.3,MacIntel,58.82352941,
,,,,,,l,1,0.833,,,,,,,,,0.833,1,0,12,12,35,1,stimuli/blank.png,träge,l,,2023-07-30_12h21.17.776,openIAT,2023.1.3,MacIntel,58.82352941,
,,,,,,a,0,0.502,,,,,,,,,0.502,0,0,13,13,25,1,stimuli/blank.png,meine,l,,2023-07-30_12h21.17.776,openIAT,2023.1.3,MacIntel,58.82352941,
,,,,,,a,1,0.602,,,,,,,,,0.602,1,0,14,14,2,1,stimuli/blank.png,ihr,a,,2023-07-30_12h21.17.776,openIAT,2023.1.3,MacIntel,58.82352941,
,,,,,,l,1,0.52,,,,,,,,,0.52,1,0,15,15,9,1,stimuli/blank.png,selbst,l,,2023-07-30_12h21.17.776,openIAT,2023.1.3,MacIntel,58.82352941,
,,,,,,l,1,0.434,,,,,,,,,0.434,1,0,16,16,21,1,stimuli/blank.png,ich,l,,2023-07-30_12h21.17.776,openIAT,2023.1.3,MacIntel,58.82352941,
,,,,,,a,1,0.735,,,,,,,,,0.735,1,0,17,17,26,1,stimuli/blank.png,euch,a,,2023-07-30_12h21.17.776,openIAT,2023.1.3,MacIntel,58.82352941,
,,,,,,l,0,0.57,,,,,,,,,0.57,0,0,18,18,18,1,stimuli/blank.png,human,a,,2023-07-30_12h21.17.776,openIAT,2023.1.3,MacIntel,58.82352941,
,,,,,,a,1,0.715,,,,,,,,,0.715,1,0,19,19,36,1,stimuli/blank.png,begabt,a,,2023-07-30_12h21.17.776,openIAT,2023.1.3,MacIntel,58.82352941,
,,,,,,a,1,0.681,,,,,,,,,0.681,1,0,20,20,24,1,stimuli/blank.png,jene,a,,2023-07-30_12h21.17.776,openIAT,2023.1.3,MacIntel,58.82352941,
,,,,,,l,1,0.486,,,,,,,,,0.486,1,0,21,21,1,1,stimuli/blank.png,ich,l,,2023-07-30_12h21.17.776,openIAT,2023.1.3,MacIntel,58.82352941,
,,,,,,l,0,0.599,,,,,,,,,0.599,0,0,22,22,34,1,stimuli/blank.png,gerecht,a,,2023-07-30_12h21.17.776,openIAT,2023.1.3,MacIntel,58.82352941,
,,,,,,a,1,0.685,,,,,,,,,0.685,1,0,23,23,28,1,stimuli/blank.png,eure,a,,2023-07-30_12h21.17.776,openIAT,2023.1.3,MacIntel,58.82352941,
,,,,,,a,1,0.532,,,,,,,,,0.532,1,0,24,24,14,1,stimuli/blank.png,gerecht,a,,2023-07-30_12h21.17.776,openIAT,2023.1.3,MacIntel,58.82352941,
,,,,,,l,1,0.685,,,,,,,,,0.685,1,0,25,25,27,1,stimuli/blank.png,eigene,l,,2023-07-30_12h21.17.776,openIAT,2023.1.3,MacIntel,58.82352941,
,,,,,,a,1,0.635,,,,,,,,,0.635,1,0,26,26,8,1,stimuli/blank.png,eure,a,,2023-07-30_12h21.17.776,openIAT,2023.1.3,MacIntel,58.82352941,
,,,,,,a,0,1.201,,,,,,,,,1.201,0,0,27,27,3,1,stimuli/blank.png,mir,l,,2023-07-30_12h21.17.776,openIAT,2023.1.3,MacIntel,58.82352941,
,,,,,,a,1,0.801,,,,,,,,,0.801,1,0,28,28,20,1,stimuli/blank.png,andere,a,,2023-07-30_12h21.17.776,openIAT,2023.1.3,MacIntel,58.82352941,
,,,,,,a,1,0.518,,,,,,,,,0.518,1,0,29,29,32,1,stimuli/blank.png,fröhlich,a,,2023-07-30_12h21.17.776,openIAT,2023.1.3,MacIntel,58.82352941,
,,,,,,l,1,0.602,,,,,,,,,0.602,1,0,30,30,31,1,stimuli/blank.png,brutal,l,,2023-07-30_12h21.17.776,openIAT,2023.1.3,MacIntel,58.82352941,
,,,,,,l,1,0.937,,,,,,,,,0.937,1,0,31,31,37,1,stimuli/blank.png,eitel,l,,2023-07-30_12h21.17.776,openIAT,2023.1.3,MacIntel,58.82352941,
,,,,,,l,1,0.716,,,,,,,,,0.716,1,0,32,32,7,1,stimuli/blank.png,eigene,l,,2023-07-30_12h21.17.776,openIAT,2023.1.3,MacIntel,58.82352941,
,,,,,,l,1,0.833,,,,,,,,,0.833,1,0,33,33,39,1,stimuli/blank.png,lustlos,l,,2023-07-30_12h21.17.776,openIAT,2023.1.3,MacIntel,58.82352941,
,,,,,,a,1,0.567,,,,,,,,,0.567,1,0,34,34,22,1,stimuli/blank.png,ihr,a,,2023-07-30_12h21.17.776,openIAT,2023.1.3,MacIntel,58.82352941,
,,,,,,l,1,0.732,,,,,,,,,0.732,1,0,35,35,11,1,stimuli/blank.png,brutal,l,,2023-07-30_12h21.17.776,openIAT,2023.1.3,MacIntel,58.82352941,
,,,,,,l,1,0.564,,,,,,,,,0.564,1,0,36,36,5,1,stimuli/blank.png,meine,l,,2023-07-30_12h21.17.776,openIAT,2023.1.3,MacIntel,58.82352941,
,,,,,,a,1,0.566,,,,,,,,,0.566,1,0,37,37,30,1,stimuli/blank.png,aktiv,a,,2023-07-30_12h21.17.776,openIAT,2023.1.3,MacIntel,58.82352941,
,,,,,,l,1,0.603,,,,,,,,,0.603,1,0,38,38,33,1,stimuli/blank.png,verlogen,l,,2023-07-30_12h21.17.776,openIAT,2023.1.3,MacIntel,58.82352941,
,,,,,,l,1,0.636,,,,,,,,,0.636,1,0,39,39,19,1,stimuli/blank.png,lustlos,l,,2023-07-30_12h21.17.776,openIAT,2023.1.3,MacIntel,58.82352941,
,,,,,,,,,,,,,,,,,,,,,,,,,,,,2023-07-30_12h21.17.776,openIAT,2023.1.3,MacIntel,58.82352941,
