instr_done_touch.x,instr_done_touch.y,instr_done_touch.leftButton,instr_done_touch.midButton,instr_done_touch.rightButton,instr_done_touch.clicked_name,key_resp.keys,key_resp.corr,key_resp.rt,key_resp.duration,touch_resp.x,touch_resp.y,touch_resp.leftButton,touch_resp.midButton,touch_resp.rightButton,touch_resp.time,touch_resp.clicked_name,rt,corr,trials.thisRepN,trials.thisTrialN,trials.thisN,trials.thisIndex,trials.ran,stimImage,stimWord,CorrAns,participant,date,expName,psychopyVersion,OS,frameRate,return_tic
-0.023148148,-0.402777778,1,0,0,instr_done_button,a,1,1.5234,,,,,,,,,1.5234,1,0,0,0,18,1,stimuli/blank.png,human,a,AG06DE,2023-08-06_10h10.21.256,openIAT,2023.1.3,Win32,59.45656698,
,,,,,,a,1,0.8644,,,,,,,,,0.8644,1,0,1,1,14,1,stimuli/blank.png,gerecht,a,AG06DE,2023-08-06_10h10.21.256,openIAT,2023.1.3,Win32,59.45656698,
,,,,,,l,1,0.8055,,,,,,,,,0.8055,1,0,2,2,11,1,stimuli/blank.png,brutal,l,AG06DE,2023-08-06_10h10.21.256,openIAT,2023.1.3,Win32,59.45656698,
,,,,,,l,1,1.1643,,,,,,,,,1.1643,1,0,3,3,7,1,stimuli/blank.png,eitel,l,AG06DE,2023-08-06_10h10.21.256,openIAT,2023.1.3,Win32,59.45656698,
,,,,,,l,1,0.7309,,,,,,,,,0.7309,1,0,4,4,1,1,stimuli/blank.png,brutal,l,AG06DE,2023-08-06_10h10.21.256,openIAT,2023.1.3,Win32,59.45656698,
,,,,,,a,1,0.7639,,,,,,,,,0.7639,1,0,5,5,16,1,stimuli/blank.png,begabt,a,AG06DE,2023-08-06_10h10.21.256,openIAT,2023.1.3,Win32,59.45656698,
,,,,,,a,1,0.7337,,,,,,,,,0.7337,1,0,6,6,0,1,stimuli/blank.png,aktiv,a,AG06DE,2023-08-06_10h10.21.256,openIAT,2023.1.3,Win32,59.45656698,
,,,,,,l,1,0.7485,,,,,,,,,0.7485,1,0,7,7,19,1,stimuli/blank.png,lustlos,l,AG06DE,2023-08-06_10h10.21.256,openIAT,2023.1.3,Win32,59.45656698,
,,,,,,l,1,0.7365,,,,,,,,,0.7365,1,0,8,8,13,1,stimuli/blank.png,verlogen,l,AG06DE,2023-08-06_10h10.21.256,openIAT,2023.1.3,Win32,59.45656698,
,,,,,,a,1,0.7658,,,,,,,,,0.7658,1,0,9,9,6,1,stimuli/blank.png,begabt,a,AG06DE,2023-08-06_10h10.21.256,openIAT,2023.1.3,Win32,59.45656698,
,,,,,,l,1,0.9758,,,,,,,,,0.9758,1,0,10,10,5,1,stimuli/blank.png,träge,l,AG06DE,2023-08-06_10h10.21.256,openIAT,2023.1.3,Win32,59.45656698,
,,,,,,a,1,0.7262,,,,,,,,,0.7262,1,0,11,11,10,1,stimuli/blank.png,aktiv,a,AG06DE,2023-08-06_10h10.21.256,openIAT,2023.1.3,Win32,59.45656698,
,,,,,,a,1,0.7831,,,,,,,,,0.7831,1,0,12,12,8,1,stimuli/blank.png,human,a,AG06DE,2023-08-06_10h10.21.256,openIAT,2023.1.3,Win32,59.45656698,
,,,,,,l,1,0.8027,,,,,,,,,0.8027,1,0,13,13,9,1,stimuli/blank.png,lustlos,l,AG06DE,2023-08-06_10h10.21.256,openIAT,2023.1.3,Win32,59.45656698,
,,,,,,l,1,0.7415,,,,,,,,,0.7415,1,0,14,14,15,1,stimuli/blank.png,träge,l,AG06DE,2023-08-06_10h10.21.256,openIAT,2023.1.3,Win32,59.45656698,
,,,,,,l,1,0.8247,,,,,,,,,0.8247,1,0,15,15,17,1,stimuli/blank.png,eitel,l,AG06DE,2023-08-06_10h10.21.256,openIAT,2023.1.3,Win32,59.45656698,
,,,,,,a,1,0.6983,,,,,,,,,0.6983,1,0,16,16,2,1,stimuli/blank.png,fröhlich,a,AG06DE,2023-08-06_10h10.21.256,openIAT,2023.1.3,Win32,59.45656698,
,,,,,,a,1,0.7496,,,,,,,,,0.7496,1,0,17,17,4,1,stimuli/blank.png,gerecht,a,AG06DE,2023-08-06_10h10.21.256,openIAT,2023.1.3,Win32,59.45656698,
,,,,,,l,1,0.624,,,,,,,,,0.624,1,0,18,18,3,1,stimuli/blank.png,verlogen,l,AG06DE,2023-08-06_10h10.21.256,openIAT,2023.1.3,Win32,59.45656698,
,,,,,,a,1,0.6061,,,,,,,,,0.6061,1,0,19,19,12,1,stimuli/blank.png,fröhlich,a,AG06DE,2023-08-06_10h10.21.256,openIAT,2023.1.3,Win32,59.45656698,
,,,,,,l,1,1.7504,,,,,,,,,1.7504,1,0,0,0,18,1,stimuli/blank.png,eure,l,AG06DE,2023-08-06_10h10.21.256,openIAT,2023.1.3,Win32,59.45656698,
,,,,,,l,1,1.0139,,,,,,,,,1.0139,1,0,1,1,4,1,stimuli/blank.png,jene,l,AG06DE,2023-08-06_10h10.21.256,openIAT,2023.1.3,Win32,59.45656698,
,,,,,,a,1,0.6164,,,,,,,,,0.6164,1,0,2,2,1,1,stimuli/blank.png,ich,a,AG06DE,2023-08-06_10h10.21.256,openIAT,2023.1.3,Win32,59.45656698,
,,,,,,l,1,0.6993,,,,,,,,,0.6993,1,0,3,3,16,1,stimuli/blank.png,euch,l,AG06DE,2023-08-06_10h10.21.256,openIAT,2023.1.3,Win32,59.45656698,
,,,,,,a,1,0.99,,,,,,,,,0.99,1,0,4,4,17,1,stimuli/blank.png,eigene,a,AG06DE,2023-08-06_10h10.21.256,openIAT,2023.1.3,Win32,59.45656698,
,,,,,,a,1,0.6644,,,,,,,,,0.6644,1,0,5,5,3,1,stimuli/blank.png,mir,a,AG06DE,2023-08-06_10h10.21.256,openIAT,2023.1.3,Win32,59.45656698,
,,,,,,a,1,0.6064,,,,,,,,,0.6064,1,0,6,6,19,1,stimuli/blank.png,selbst,a,AG06DE,2023-08-06_10h10.21.256,openIAT,2023.1.3,Win32,59.45656698,
,,,,,,l,1,0.6041,,,,,,,,,0.6041,1,0,7,7,6,1,stimuli/blank.png,euch,l,AG06DE,2023-08-06_10h10.21.256,openIAT,2023.1.3,Win32,59.45656698,
,,,,,,l,1,0.7068,,,,,,,,,0.7068,1,0,8,8,0,1,stimuli/blank.png,andere,l,AG06DE,2023-08-06_10h10.21.256,openIAT,2023.1.3,Win32,59.45656698,
,,,,,,a,1,0.6159,,,,,,,,,0.6159,1,0,9,9,9,1,stimuli/blank.png,selbst,a,AG06DE,2023-08-06_10h10.21.256,openIAT,2023.1.3,Win32,59.45656698,
,,,,,,l,1,1.1298,,,,,,,,,1.1298,1,0,10,10,14,1,stimuli/blank.png,jene,l,AG06DE,2023-08-06_10h10.21.256,openIAT,2023.1.3,Win32,59.45656698,
,,,,,,a,1,0.5869,,,,,,,,,0.5869,1,0,11,11,5,1,stimuli/blank.png,meine,a,AG06DE,2023-08-06_10h10.21.256,openIAT,2023.1.3,Win32,59.45656698,
,,,,,,a,1,0.6922,,,,,,,,,0.6922,1,0,12,12,15,1,stimuli/blank.png,meine,a,AG06DE,2023-08-06_10h10.21.256,openIAT,2023.1.3,Win32,59.45656698,
,,,,,,l,1,0.7265,,,,,,,,,0.7265,1,0,13,13,12,1,stimuli/blank.png,ihr,l,AG06DE,2023-08-06_10h10.21.256,openIAT,2023.1.3,Win32,59.45656698,
,,,,,,l,1,0.6371,,,,,,,,,0.6371,1,0,14,14,8,1,stimuli/blank.png,eure,l,AG06DE,2023-08-06_10h10.21.256,openIAT,2023.1.3,Win32,59.45656698,
,,,,,,a,1,0.6503,,,,,,,,,0.6503,1,0,15,15,7,1,stimuli/blank.png,eigene,a,AG06DE,2023-08-06_10h10.21.256,openIAT,2023.1.3,Win32,59.45656698,
,,,,,,l,1,0.5905,,,,,,,,,0.5905,1,0,16,16,10,1,stimuli/blank.png,andere,l,AG06DE,2023-08-06_10h10.21.256,openIAT,2023.1.3,Win32,59.45656698,
,,,,,,a,1,0.6374,,,,,,,,,0.6374,1,0,17,17,13,1,stimuli/blank.png,mir,a,AG06DE,2023-08-06_10h10.21.256,openIAT,2023.1.3,Win32,59.45656698,
,,,,,,l,1,0.6359,,,,,,,,,0.6359,1,0,18,18,2,1,stimuli/blank.png,ihr,l,AG06DE,2023-08-06_10h10.21.256,openIAT,2023.1.3,Win32,59.45656698,
,,,,,,a,1,0.5998,,,,,,,,,0.5998,1,0,19,19,11,1,stimuli/blank.png,ich,a,AG06DE,2023-08-06_10h10.21.256,openIAT,2023.1.3,Win32,59.45656698,
,,,,,,a,1,0.7861,,,,,,,,,0.7861,1,0,0,0,14,1,stimuli/blank.png,gerecht,a,AG06DE,2023-08-06_10h10.21.256,openIAT,2023.1.3,Win32,59.45656698,
,,,,,,l,1,0.716,,,,,,,,,0.716,1,0,1,1,15,1,stimuli/blank.png,träge,l,AG06DE,2023-08-06_10h10.21.256,openIAT,2023.1.3,Win32,59.45656698,
,,,,,,a,1,0.6821,,,,,,,,,0.6821,1,0,2,2,18,1,stimuli/blank.png,human,a,AG06DE,2023-08-06_10h10.21.256,openIAT,2023.1.3,Win32,59.45656698,
,,,,,,a,1,0.7816,,,,,,,,,0.7816,1,0,3,3,16,1,stimuli/blank.png,begabt,a,AG06DE,2023-08-06_10h10.21.256,openIAT,2023.1.3,Win32,59.45656698,
,,,,,,a,1,0.7823,,,,,,,,,0.7823,1,0,4,4,7,1,stimuli/blank.png,eigene,a,AG06DE,2023-08-06_10h10.21.256,openIAT,2023.1.3,Win32,59.45656698,
,,,,,,a,1,0.5648,,,,,,,,,0.5648,1,0,5,5,1,1,stimuli/blank.png,ich,a,AG06DE,2023-08-06_10h10.21.256,openIAT,2023.1.3,Win32,59.45656698,
,,,,,,l,1,0.7318,,,,,,,,,0.7318,1,0,6,6,6,1,stimuli/blank.png,euch,l,AG06DE,2023-08-06_10h10.21.256,openIAT,2023.1.3,Win32,59.45656698,
,,,,,,l,1,0.6894,,,,,,,,,0.6894,1,0,7,7,0,1,stimuli/blank.png,andere,l,AG06DE,2023-08-06_10h10.21.256,openIAT,2023.1.3,Win32,59.45656698,
,,,,,,a,1,0.6074,,,,,,,,,0.6074,1,0,8,8,5,1,stimuli/blank.png,meine,a,AG06DE,2023-08-06_10h10.21.256,openIAT,2023.1.3,Win32,59.45656698,
,,,,,,l,1,0.7648,,,,,,,,,0.7648,1,0,9,9,19,1,stimuli/blank.png,lustlos,l,AG06DE,2023-08-06_10h10.21.256,openIAT,2023.1.3,Win32,59.45656698,
,,,,,,l,1,1.0324,,,,,,,,,1.0324,1,0,10,10,17,1,stimuli/blank.png,eitel,l,AG06DE,2023-08-06_10h10.21.256,openIAT,2023.1.3,Win32,59.45656698,
,,,,,,a,1,0.5821,,,,,,,,,0.5821,1,0,11,11,3,1,stimuli/blank.png,mir,a,AG06DE,2023-08-06_10h10.21.256,openIAT,2023.1.3,Win32,59.45656698,
,,,,,,l,1,0.5811,,,,,,,,,0.5811,1,0,12,12,13,1,stimuli/blank.png,verlogen,l,AG06DE,2023-08-06_10h10.21.256,openIAT,2023.1.3,Win32,59.45656698,
,,,,,,a,1,0.5834,,,,,,,,,0.5834,1,0,13,13,12,1,stimuli/blank.png,fröhlich,a,AG06DE,2023-08-06_10h10.21.256,openIAT,2023.1.3,Win32,59.45656698,
,,,,,,a,1,0.5981,,,,,,,,,0.5981,1,0,14,14,9,1,stimuli/blank.png,selbst,a,AG06DE,2023-08-06_10h10.21.256,openIAT,2023.1.3,Win32,59.45656698,
,,,,,,l,1,0.6047,,,,,,,,,0.6047,1,0,15,15,11,1,stimuli/blank.png,brutal,l,AG06DE,2023-08-06_10h10.21.256,openIAT,2023.1.3,Win32,59.45656698,
,,,,,,l,1,0.7996,,,,,,,,,0.7996,1,0,16,16,4,1,stimuli/blank.png,jene,l,AG06DE,2023-08-06_10h10.21.256,openIAT,2023.1.3,Win32,59.45656698,
,,,,,,l,1,0.5989,,,,,,,,,0.5989,1,0,17,17,8,1,stimuli/blank.png,eure,l,AG06DE,2023-08-06_10h10.21.256,openIAT,2023.1.3,Win32,59.45656698,
,,,,,,a,1,0.7248,,,,,,,,,0.7248,1,0,18,18,10,1,stimuli/blank.png,aktiv,a,AG06DE,2023-08-06_10h10.21.256,openIAT,2023.1.3,Win32,59.45656698,
,,,,,,l,1,0.6367,,,,,,,,,0.6367,1,0,19,19,2,1,stimuli/blank.png,ihr,l,AG06DE,2023-08-06_10h10.21.256,openIAT,2023.1.3,Win32,59.45656698,
,,,,,,a,1,0.9129,,,,,,,,,0.9129,1,0,0,0,27,1,stimuli/blank.png,eigene,a,AG06DE,2023-08-06_10h10.21.256,openIAT,2023.1.3,Win32,59.45656698,
,,,,,,a,1,0.7322,,,,,,,,,0.7322,1,0,1,1,34,1,stimuli/blank.png,gerecht,a,AG06DE,2023-08-06_10h10.21.256,openIAT,2023.1.3,Win32,59.45656698,
,,,,,,l,1,0.6646,,,,,,,,,0.6646,1,0,2,2,13,1,stimuli/blank.png,verlogen,l,AG06DE,2023-08-06_10h10.21.256,openIAT,2023.1.3,Win32,59.45656698,
,,,,,,l,1,0.632,,,,,,,,,0.632,1,0,3,3,20,1,stimuli/blank.png,andere,l,AG06DE,2023-08-06_10h10.21.256,openIAT,2023.1.3,Win32,59.45656698,
,,,,,,l,1,0.765,,,,,,,,,0.765,1,0,4,4,2,1,stimuli/blank.png,ihr,l,AG06DE,2023-08-06_10h10.21.256,openIAT,2023.1.3,Win32,59.45656698,
,,,,,,l,1,0.7904,,,,,,,,,0.7904,1,0,5,5,19,1,stimuli/blank.png,lustlos,l,AG06DE,2023-08-06_10h10.21.256,openIAT,2023.1.3,Win32,59.45656698,
,,,,,,a,1,0.6832,,,,,,,,,0.6832,1,0,6,6,7,1,stimuli/blank.png,eigene,a,AG06DE,2023-08-06_10h10.21.256,openIAT,2023.1.3,Win32,59.45656698,
,,,,,,l,1,0.6315,,,,,,,,,0.6315,1,0,7,7,28,1,stimuli/blank.png,eure,l,AG06DE,2023-08-06_10h10.21.256,openIAT,2023.1.3,Win32,59.45656698,
,,,,,,a,1,0.5499,,,,,,,,,0.5499,1,0,8,8,23,1,stimuli/blank.png,mir,a,AG06DE,2023-08-06_10h10.21.256,openIAT,2023.1.3,Win32,59.45656698,
,,,,,,l,1,0.6064,,,,,,,,,0.6064,1,0,9,9,33,1,stimuli/blank.png,verlogen,l,AG06DE,2023-08-06_10h10.21.256,openIAT,2023.1.3,Win32,59.45656698,
,,,,,,l,1,0.632,,,,,,,,,0.632,1,0,10,10,4,1,stimuli/blank.png,jene,l,AG06DE,2023-08-06_10h10.21.256,openIAT,2023.1.3,Win32,59.45656698,
,,,,,,l,1,0.6841,,,,,,,,,0.6841,1,0,11,11,22,1,stimuli/blank.png,ihr,l,AG06DE,2023-08-06_10h10.21.256,openIAT,2023.1.3,Win32,59.45656698,
,,,,,,a,1,0.6148,,,,,,,,,0.6148,1,0,12,12,12,1,stimuli/blank.png,fröhlich,a,AG06DE,2023-08-06_10h10.21.256,openIAT,2023.1.3,Win32,59.45656698,
,,,,,,l,1,0.8024,,,,,,,,,0.8024,1,0,13,13,37,1,stimuli/blank.png,eitel,l,AG06DE,2023-08-06_10h10.21.256,openIAT,2023.1.3,Win32,59.45656698,
,,,,,,l,1,0.6486,,,,,,,,,0.6486,1,0,14,14,35,1,stimuli/blank.png,träge,l,AG06DE,2023-08-06_10h10.21.256,openIAT,2023.1.3,Win32,59.45656698,
,,,,,,l,1,0.7025,,,,,,,,,0.7025,1,0,15,15,26,1,stimuli/blank.png,euch,l,AG06DE,2023-08-06_10h10.21.256,openIAT,2023.1.3,Win32,59.45656698,
,,,,,,l,1,0.5673,,,,,,,,,0.5673,1,0,16,16,6,1,stimuli/blank.png,euch,l,AG06DE,2023-08-06_10h10.21.256,openIAT,2023.1.3,Win32,59.45656698,
,,,,,,l,1,0.6161,,,,,,,,,0.6161,1,0,17,17,31,1,stimuli/blank.png,brutal,l,AG06DE,2023-08-06_10h10.21.256,openIAT,2023.1.3,Win32,59.45656698,
,,,,,,a,1,0.6317,,,,,,,,,0.6317,1,0,18,18,30,1,stimuli/blank.png,aktiv,a,AG06DE,2023-08-06_10h10.21.256,openIAT,2023.1.3,Win32,59.45656698,
,,,,,,a,1,0.6362,,,,,,,,,0.6362,1,0,19,19,25,1,stimuli/blank.png,meine,a,AG06DE,2023-08-06_10h10.21.256,openIAT,2023.1.3,Win32,59.45656698,
,,,,,,a,1,0.6498,,,,,,,,,0.6498,1,0,20,20,3,1,stimuli/blank.png,mir,a,AG06DE,2023-08-06_10h10.21.256,openIAT,2023.1.3,Win32,59.45656698,
,,,,,,a,1,0.5826,,,,,,,,,0.5826,1,0,21,21,21,1,stimuli/blank.png,ich,a,AG06DE,2023-08-06_10h10.21.256,openIAT,2023.1.3,Win32,59.45656698,
,,,,,,a,1,0.5396,,,,,,,,,0.5396,1,0,22,22,29,1,stimuli/blank.png,selbst,a,AG06DE,2023-08-06_10h10.21.256,openIAT,2023.1.3,Win32,59.45656698,
,,,,,,a,1,0.499,,,,,,,,,0.499,1,0,23,23,10,1,stimuli/blank.png,aktiv,a,AG06DE,2023-08-06_10h10.21.256,openIAT,2023.1.3,Win32,59.45656698,
,,,,,,a,1,0.565,,,,,,,,,0.565,1,0,24,24,18,1,stimuli/blank.png,human,a,AG06DE,2023-08-06_10h10.21.256,openIAT,2023.1.3,Win32,59.45656698,
,,,,,,a,1,0.4484,,,,,,,,,0.4484,1,0,25,25,1,1,stimuli/blank.png,ich,a,AG06DE,2023-08-06_10h10.21.256,openIAT,2023.1.3,Win32,59.45656698,
,,,,,,l,1,0.5988,,,,,,,,,0.5988,1,0,26,26,11,1,stimuli/blank.png,brutal,l,AG06DE,2023-08-06_10h10.21.256,openIAT,2023.1.3,Win32,59.45656698,
,,,,,,l,1,0.5882,,,,,,,,,0.5882,1,0,27,27,17,1,stimuli/blank.png,eitel,l,AG06DE,2023-08-06_10h10.21.256,openIAT,2023.1.3,Win32,59.45656698,
,,,,,,a,1,0.8207,,,,,,,,,0.8207,1,0,28,28,36,1,stimuli/blank.png,begabt,a,AG06DE,2023-08-06_10h10.21.256,openIAT,2023.1.3,Win32,59.45656698,
,,,,,,a,1,0.5656,,,,,,,,,0.5656,1,0,29,29,5,1,stimuli/blank.png,meine,a,AG06DE,2023-08-06_10h10.21.256,openIAT,2023.1.3,Win32,59.45656698,
,,,,,,a,1,0.6318,,,,,,,,,0.6318,1,0,30,30,38,1,stimuli/blank.png,human,a,AG06DE,2023-08-06_10h10.21.256,openIAT,2023.1.3,Win32,59.45656698,
,,,,,,a,1,0.59,,,,,,,,,0.59,1,0,31,31,16,1,stimuli/blank.png,begabt,a,AG06DE,2023-08-06_10h10.21.256,openIAT,2023.1.3,Win32,59.45656698,
,,,,,,l,1,0.6407,,,,,,,,,0.6407,1,0,32,32,15,1,stimuli/blank.png,träge,l,AG06DE,2023-08-06_10h10.21.256,openIAT,2023.1.3,Win32,59.45656698,
,,,,,,a,1,0.615,,,,,,,,,0.615,1,0,33,33,32,1,stimuli/blank.png,fröhlich,a,AG06DE,2023-08-06_10h10.21.256,openIAT,2023.1.3,Win32,59.45656698,
,,,,,,l,1,0.6063,,,,,,,,,0.6063,1,0,34,34,24,1,stimuli/blank.png,jene,l,AG06DE,2023-08-06_10h10.21.256,openIAT,2023.1.3,Win32,59.45656698,
,,,,,,a,0,0.8372,,,,,,,,,0.8372,0,0,35,35,39,1,stimuli/blank.png,lustlos,l,AG06DE,2023-08-06_10h10.21.256,openIAT,2023.1.3,Win32,59.45656698,
,,,,,,a,1,1.505,,,,,,,,,1.505,1,0,36,36,14,1,stimuli/blank.png,gerecht,a,AG06DE,2023-08-06_10h10.21.256,openIAT,2023.1.3,Win32,59.45656698,
,,,,,,a,1,0.6652,,,,,,,,,0.6652,1,0,37,37,9,1,stimuli/blank.png,selbst,a,AG06DE,2023-08-06_10h10.21.256,openIAT,2023.1.3,Win32,59.45656698,
,,,,,,l,1,1.3897,,,,,,,,,1.3897,1,0,38,38,8,1,stimuli/blank.png,eure,l,AG06DE,2023-08-06_10h10.21.256,openIAT,2023.1.3,Win32,59.45656698,
,,,,,,l,1,0.6314,,,,,,,,,0.6314,1,0,39,39,0,1,stimuli/blank.png,andere,l,AG06DE,2023-08-06_10h10.21.256,openIAT,2023.1.3,Win32,59.45656698,
,,,,,,l,1,1.3102,,,,,,,,,1.3102,1,0,0,0,5,1,stimuli/blank.png,meine,l,AG06DE,2023-08-06_10h10.21.256,openIAT,2023.1.3,Win32,59.45656698,
,,,,,,l,1,0.5506,,,,,,,,,0.5506,1,0,1,1,15,1,stimuli/blank.png,meine,l,AG06DE,2023-08-06_10h10.21.256,openIAT,2023.1.3,Win32,59.45656698,
,,,,,,l,1,0.6176,,,,,,,,,0.6176,1,0,2,2,11,1,stimuli/blank.png,ich,l,AG06DE,2023-08-06_10h10.21.256,openIAT,2023.1.3,Win32,59.45656698,
,,,,,,l,1,0.6822,,,,,,,,,0.6822,1,0,3,3,7,1,stimuli/blank.png,eigene,l,AG06DE,2023-08-06_10h10.21.256,openIAT,2023.1.3,Win32,59.45656698,
,,,,,,a,1,0.5292,,,,,,,,,0.5292,1,0,4,4,10,1,stimuli/blank.png,andere,a,AG06DE,2023-08-06_10h10.21.256,openIAT,2023.1.3,Win32,59.45656698,
,,,,,,a,1,0.6173,,,,,,,,,0.6173,1,0,5,5,4,1,stimuli/blank.png,jene,a,AG06DE,2023-08-06_10h10.21.256,openIAT,2023.1.3,Win32,59.45656698,
,,,,,,a,1,0.6821,,,,,,,,,0.6821,1,0,6,6,16,1,stimuli/blank.png,euch,a,AG06DE,2023-08-06_10h10.21.256,openIAT,2023.1.3,Win32,59.45656698,
,,,,,,a,1,0.633,,,,,,,,,0.633,1,0,7,7,8,1,stimuli/blank.png,eure,a,AG06DE,2023-08-06_10h10.21.256,openIAT,2023.1.3,Win32,59.45656698,
,,,,,,l,1,0.5985,,,,,,,,,0.5985,1,0,8,8,13,1,stimuli/blank.png,mir,l,AG06DE,2023-08-06_10h10.21.256,openIAT,2023.1.3,Win32,59.45656698,
,,,,,,l,1,0.9987,,,,,,,,,0.9987,1,0,9,9,17,1,stimuli/blank.png,eigene,l,AG06DE,2023-08-06_10h10.21.256,openIAT,2023.1.3,Win32,59.45656698,
,,,,,,l,1,0.5716,,,,,,,,,0.5716,1,0,10,10,1,1,stimuli/blank.png,ich,l,AG06DE,2023-08-06_10h10.21.256,openIAT,2023.1.3,Win32,59.45656698,
,,,,,,a,1,0.6325,,,,,,,,,0.6325,1,0,11,11,0,1,stimuli/blank.png,andere,a,AG06DE,2023-08-06_10h10.21.256,openIAT,2023.1.3,Win32,59.45656698,
,,,,,,l,1,0.7651,,,,,,,,,0.7651,1,0,12,12,9,1,stimuli/blank.png,selbst,l,AG06DE,2023-08-06_10h10.21.256,openIAT,2023.1.3,Win32,59.45656698,
,,,,,,l,1,0.5676,,,,,,,,,0.5676,1,0,13,13,3,1,stimuli/blank.png,mir,l,AG06DE,2023-08-06_10h10.21.256,openIAT,2023.1.3,Win32,59.45656698,
,,,,,,a,1,1.0665,,,,,,,,,1.0665,1,0,14,14,6,1,stimuli/blank.png,euch,a,AG06DE,2023-08-06_10h10.21.256,openIAT,2023.1.3,Win32,59.45656698,
,,,,,,l,1,0.6416,,,,,,,,,0.6416,1,0,15,15,19,1,stimuli/blank.png,selbst,l,AG06DE,2023-08-06_10h10.21.256,openIAT,2023.1.3,Win32,59.45656698,
,,,,,,a,1,0.8039,,,,,,,,,0.8039,1,0,16,16,18,1,stimuli/blank.png,eure,a,AG06DE,2023-08-06_10h10.21.256,openIAT,2023.1.3,Win32,59.45656698,
,,,,,,a,1,0.6518,,,,,,,,,0.6518,1,0,17,17,12,1,stimuli/blank.png,ihr,a,AG06DE,2023-08-06_10h10.21.256,openIAT,2023.1.3,Win32,59.45656698,
,,,,,,a,1,0.6193,,,,,,,,,0.6193,1,0,18,18,14,1,stimuli/blank.png,jene,a,AG06DE,2023-08-06_10h10.21.256,openIAT,2023.1.3,Win32,59.45656698,
,,,,,,l,0,0.4547,,,,,,,,,0.4547,0,0,19,19,2,1,stimuli/blank.png,ihr,a,AG06DE,2023-08-06_10h10.21.256,openIAT,2023.1.3,Win32,59.45656698,
,,,,,,l,1,1.282,,,,,,,,,1.282,1,0,0,0,7,1,stimuli/blank.png,eigene,l,AG06DE,2023-08-06_10h10.21.256,openIAT,2023.1.3,Win32,59.45656698,
,,,,,,l,1,2.2992,,,,,,,,,2.2992,1,0,1,1,15,1,stimuli/blank.png,träge,l,AG06DE,2023-08-06_10h10.21.256,openIAT,2023.1.3,Win32,59.45656698,
,,,,,,a,1,1.3325,,,,,,,,,1.3325,1,0,2,2,10,1,stimuli/blank.png,aktiv,a,AG06DE,2023-08-06_10h10.21.256,openIAT,2023.1.3,Win32,59.45656698,
,,,,,,l,1,0.7472,,,,,,,,,0.7472,1,0,3,3,1,1,stimuli/blank.png,ich,l,AG06DE,2023-08-06_10h10.21.256,openIAT,2023.1.3,Win32,59.45656698,
,,,,,,a,1,0.8371,,,,,,,,,0.8371,1,0,4,4,18,1,stimuli/blank.png,human,a,AG06DE,2023-08-06_10h10.21.256,openIAT,2023.1.3,Win32,59.45656698,
,,,,,,l,1,0.7215,,,,,,,,,0.7215,1,0,5,5,5,1,stimuli/blank.png,meine,l,AG06DE,2023-08-06_10h10.21.256,openIAT,2023.1.3,Win32,59.45656698,
,,,,,,a,1,0.8157,,,,,,,,,0.8157,1,0,6,6,12,1,stimuli/blank.png,fröhlich,a,AG06DE,2023-08-06_10h10.21.256,openIAT,2023.1.3,Win32,59.45656698,
,,,,,,a,1,0.7066,,,,,,,,,0.7066,1,0,7,7,8,1,stimuli/blank.png,eure,a,AG06DE,2023-08-06_10h10.21.256,openIAT,2023.1.3,Win32,59.45656698,
,,,,,,l,1,0.7835,,,,,,,,,0.7835,1,0,8,8,19,1,stimuli/blank.png,lustlos,l,AG06DE,2023-08-06_10h10.21.256,openIAT,2023.1.3,Win32,59.45656698,
,,,,,,a,1,0.8494,,,,,,,,,0.8494,1,0,9,9,14,1,stimuli/blank.png,gerecht,a,AG06DE,2023-08-06_10h10.21.256,openIAT,2023.1.3,Win32,59.45656698,
,,,,,,a,0,0.7209,,,,,,,,,0.7209,0,0,10,10,13,1,stimuli/blank.png,verlogen,l,AG06DE,2023-08-06_10h10.21.256,openIAT,2023.1.3,Win32,59.45656698,
,,,,,,l,1,0.7874,,,,,,,,,0.7874,1,0,11,11,11,1,stimuli/blank.png,brutal,l,AG06DE,2023-08-06_10h10.21.256,openIAT,2023.1.3,Win32,59.45656698,
,,,,,,a,1,0.8894,,,,,,,,,0.8894,1,0,12,12,16,1,stimuli/blank.png,begabt,a,AG06DE,2023-08-06_10h10.21.256,openIAT,2023.1.3,Win32,59.45656698,
,,,,,,a,1,0.8694,,,,,,,,,0.8694,1,0,13,13,6,1,stimuli/blank.png,euch,a,AG06DE,2023-08-06_10h10.21.256,openIAT,2023.1.3,Win32,59.45656698,
,,,,,,l,1,0.7232,,,,,,,,,0.7232,1,0,14,14,9,1,stimuli/blank.png,selbst,l,AG06DE,2023-08-06_10h10.21.256,openIAT,2023.1.3,Win32,59.45656698,
,,,,,,a,1,0.7318,,,,,,,,,0.7318,1,0,15,15,0,1,stimuli/blank.png,andere,a,AG06DE,2023-08-06_10h10.21.256,openIAT,2023.1.3,Win32,59.45656698,
,,,,,,l,1,0.9153,,,,,,,,,0.9153,1,0,16,16,17,1,stimuli/blank.png,eitel,l,AG06DE,2023-08-06_10h10.21.256,openIAT,2023.1.3,Win32,59.45656698,
,,,,,,a,1,0.9577,,,,,,,,,0.9577,1,0,17,17,2,1,stimuli/blank.png,ihr,a,AG06DE,2023-08-06_10h10.21.256,openIAT,2023.1.3,Win32,59.45656698,
,,,,,,l,1,0.7491,,,,,,,,,0.7491,1,0,18,18,3,1,stimuli/blank.png,mir,l,AG06DE,2023-08-06_10h10.21.256,openIAT,2023.1.3,Win32,59.45656698,
,,,,,,a,1,0.8326,,,,,,,,,0.8326,1,0,19,19,4,1,stimuli/blank.png,jene,a,AG06DE,2023-08-06_10h10.21.256,openIAT,2023.1.3,Win32,59.45656698,
,,,,,,l,1,0.9405,,,,,,,,,0.9405,1,0,0,0,23,1,stimuli/blank.png,mir,l,AG06DE,2023-08-06_10h10.21.256,openIAT,2023.1.3,Win32,59.45656698,
,,,,,,l,1,0.8564,,,,,,,,,0.8564,1,0,1,1,5,1,stimuli/blank.png,meine,l,AG06DE,2023-08-06_10h10.21.256,openIAT,2023.1.3,Win32,59.45656698,
,,,,,,a,1,1.0982,,,,,,,,,1.0982,1,0,2,2,16,1,stimuli/blank.png,begabt,a,AG06DE,2023-08-06_10h10.21.256,openIAT,2023.1.3,Win32,59.45656698,
,,,,,,a,1,0.7993,,,,,,,,,0.7993,1,0,3,3,4,1,stimuli/blank.png,jene,a,AG06DE,2023-08-06_10h10.21.256,openIAT,2023.1.3,Win32,59.45656698,
,,,,,,l,1,0.6237,,,,,,,,,0.6237,1,0,4,4,11,1,stimuli/blank.png,brutal,l,AG06DE,2023-08-06_10h10.21.256,openIAT,2023.1.3,Win32,59.45656698,
,,,,,,l,1,1.165,,,,,,,,,1.165,1,0,5,5,37,1,stimuli/blank.png,eitel,l,AG06DE,2023-08-06_10h10.21.256,openIAT,2023.1.3,Win32,59.45656698,
,,,,,,a,1,0.7167,,,,,,,,,0.7167,1,0,6,6,6,1,stimuli/blank.png,euch,a,AG06DE,2023-08-06_10h10.21.256,openIAT,2023.1.3,Win32,59.45656698,
,,,,,,a,1,0.6997,,,,,,,,,0.6997,1,0,7,7,22,1,stimuli/blank.png,ihr,a,AG06DE,2023-08-06_10h10.21.256,openIAT,2023.1.3,Win32,59.45656698,
,,,,,,a,1,0.9478,,,,,,,,,0.9478,1,0,8,8,32,1,stimuli/blank.png,fröhlich,a,AG06DE,2023-08-06_10h10.21.256,openIAT,2023.1.3,Win32,59.45656698,
,,,,,,l,1,0.715,,,,,,,,,0.715,1,0,9,9,7,1,stimuli/blank.png,eigene,l,AG06DE,2023-08-06_10h10.21.256,openIAT,2023.1.3,Win32,59.45656698,
,,,,,,a,1,0.9984,,,,,,,,,0.9984,1,0,10,10,38,1,stimuli/blank.png,human,a,AG06DE,2023-08-06_10h10.21.256,openIAT,2023.1.3,Win32,59.45656698,
,,,,,,l,1,0.7566,,,,,,,,,0.7566,1,0,11,11,27,1,stimuli/blank.png,eigene,l,AG06DE,2023-08-06_10h10.21.256,openIAT,2023.1.3,Win32,59.45656698,
,,,,,,l,1,0.7839,,,,,,,,,0.7839,1,0,12,12,13,1,stimuli/blank.png,verlogen,l,AG06DE,2023-08-06_10h10.21.256,openIAT,2023.1.3,Win32,59.45656698,
,,,,,,a,1,0.7655,,,,,,,,,0.7655,1,0,13,13,18,1,stimuli/blank.png,human,a,AG06DE,2023-08-06_10h10.21.256,openIAT,2023.1.3,Win32,59.45656698,
,,,,,,l,1,0.8158,,,,,,,,,0.8158,1,0,14,14,35,1,stimuli/blank.png,träge,l,AG06DE,2023-08-06_10h10.21.256,openIAT,2023.1.3,Win32,59.45656698,
,,,,,,a,1,0.6348,,,,,,,,,0.6348,1,0,15,15,0,1,stimuli/blank.png,andere,a,AG06DE,2023-08-06_10h10.21.256,openIAT,2023.1.3,Win32,59.45656698,
,,,,,,l,1,0.6834,,,,,,,,,0.6834,1,0,16,16,39,1,stimuli/blank.png,lustlos,l,AG06DE,2023-08-06_10h10.21.256,openIAT,2023.1.3,Win32,59.45656698,
,,,,,,a,1,1.0987,,,,,,,,,1.0987,1,0,17,17,34,1,stimuli/blank.png,gerecht,a,AG06DE,2023-08-06_10h10.21.256,openIAT,2023.1.3,Win32,59.45656698,
,,,,,,a,1,1.0991,,,,,,,,,1.0991,1,0,18,18,12,1,stimuli/blank.png,fröhlich,a,AG06DE,2023-08-06_10h10.21.256,openIAT,2023.1.3,Win32,59.45656698,
,,,,,,l,1,0.6825,,,,,,,,,0.6825,1,0,19,19,17,1,stimuli/blank.png,eitel,l,AG06DE,2023-08-06_10h10.21.256,openIAT,2023.1.3,Win32,59.45656698,
,,,,,,a,1,0.8819,,,,,,,,,0.8819,1,0,20,20,14,1,stimuli/blank.png,gerecht,a,AG06DE,2023-08-06_10h10.21.256,openIAT,2023.1.3,Win32,59.45656698,
,,,,,,a,1,0.7829,,,,,,,,,0.7829,1,0,21,21,26,1,stimuli/blank.png,euch,a,AG06DE,2023-08-06_10h10.21.256,openIAT,2023.1.3,Win32,59.45656698,
,,,,,,a,1,0.6983,,,,,,,,,0.6983,1,0,22,22,2,1,stimuli/blank.png,ihr,a,AG06DE,2023-08-06_10h10.21.256,openIAT,2023.1.3,Win32,59.45656698,
,,,,,,l,1,0.6369,,,,,,,,,0.6369,1,0,23,23,31,1,stimuli/blank.png,brutal,l,AG06DE,2023-08-06_10h10.21.256,openIAT,2023.1.3,Win32,59.45656698,
,,,,,,l,1,0.7486,,,,,,,,,0.7486,1,0,24,24,3,1,stimuli/blank.png,mir,l,AG06DE,2023-08-06_10h10.21.256,openIAT,2023.1.3,Win32,59.45656698,
,,,,,,l,1,0.6987,,,,,,,,,0.6987,1,0,25,25,33,1,stimuli/blank.png,verlogen,l,AG06DE,2023-08-06_10h10.21.256,openIAT,2023.1.3,Win32,59.45656698,
,,,,,,l,1,0.5871,,,,,,,,,0.5871,1,0,26,26,1,1,stimuli/blank.png,ich,l,AG06DE,2023-08-06_10h10.21.256,openIAT,2023.1.3,Win32,59.45656698,
,,,,,,l,1,1.0051,,,,,,,,,1.0051,1,0,27,27,15,1,stimuli/blank.png,träge,l,AG06DE,2023-08-06_10h10.21.256,openIAT,2023.1.3,Win32,59.45656698,
,,,,,,a,1,0.6321,,,,,,,,,0.6321,1,0,28,28,8,1,stimuli/blank.png,eure,a,AG06DE,2023-08-06_10h10.21.256,openIAT,2023.1.3,Win32,59.45656698,
,,,,,,l,1,0.5711,,,,,,,,,0.5711,1,0,29,29,25,1,stimuli/blank.png,meine,l,AG06DE,2023-08-06_10h10.21.256,openIAT,2023.1.3,Win32,59.45656698,
,,,,,,a,1,0.8495,,,,,,,,,0.8495,1,0,30,30,24,1,stimuli/blank.png,jene,a,AG06DE,2023-08-06_10h10.21.256,openIAT,2023.1.3,Win32,59.45656698,
,,,,,,a,1,0.8689,,,,,,,,,0.8689,1,0,31,31,36,1,stimuli/blank.png,begabt,a,AG06DE,2023-08-06_10h10.21.256,openIAT,2023.1.3,Win32,59.45656698,
,,,,,,l,1,0.6393,,,,,,,,,0.6393,1,0,32,32,21,1,stimuli/blank.png,ich,l,AG06DE,2023-08-06_10h10.21.256,openIAT,2023.1.3,Win32,59.45656698,
,,,,,,l,1,0.8481,,,,,,,,,0.8481,1,0,33,33,29,1,stimuli/blank.png,selbst,l,AG06DE,2023-08-06_10h10.21.256,openIAT,2023.1.3,Win32,59.45656698,
,,,,,,a,1,0.6883,,,,,,,,,0.6883,1,0,34,34,20,1,stimuli/blank.png,andere,a,AG06DE,2023-08-06_10h10.21.256,openIAT,2023.1.3,Win32,59.45656698,
,,,,,,l,1,0.9431,,,,,,,,,0.9431,1,0,35,35,9,1,stimuli/blank.png,selbst,l,AG06DE,2023-08-06_10h10.21.256,openIAT,2023.1.3,Win32,59.45656698,
,,,,,,l,1,0.854,,,,,,,,,0.854,1,0,36,36,19,1,stimuli/blank.png,lustlos,l,AG06DE,2023-08-06_10h10.21.256,openIAT,2023.1.3,Win32,59.45656698,
,,,,,,a,1,0.6824,,,,,,,,,0.6824,1,0,37,37,28,1,stimuli/blank.png,eure,a,AG06DE,2023-08-06_10h10.21.256,openIAT,2023.1.3,Win32,59.45656698,
,,,,,,a,1,0.8154,,,,,,,,,0.8154,1,0,38,38,10,1,stimuli/blank.png,aktiv,a,AG06DE,2023-08-06_10h10.21.256,openIAT,2023.1.3,Win32,59.45656698,
,,,,,,a,1,0.5514,,,,,,,,,0.5514,1,0,39,39,30,1,stimuli/blank.png,aktiv,a,AG06DE,2023-08-06_10h10.21.256,openIAT,2023.1.3,Win32,59.45656698,
,,,,,,,,,,,,,,,,,,,,,,,,,,,AG06DE,2023-08-06_10h10.21.256,openIAT,2023.1.3,Win32,59.45656698,
