instr_done_touch.x,instr_done_touch.y,instr_done_touch.leftButton,instr_done_touch.midButton,instr_done_touch.rightButton,instr_done_touch.clicked_name,key_resp.keys,key_resp.corr,key_resp.rt,key_resp.duration,touch_resp.x,touch_resp.y,touch_resp.leftButton,touch_resp.midButton,touch_resp.rightButton,touch_resp.time,touch_resp.clicked_name,rt,corr,trials.thisRepN,trials.thisTrialN,trials.thisN,trials.thisIndex,trials.ran,stimImage,stimWord,CorrAns,participant,date,expName,psychopyVersion,OS,frameRate,return_tic
-0.032222222,-0.398888889,1,0,0,instr_done_button,l,1,0.704,,,,,,,,,0.704,1,0,0,0,15,1,stimuli/blank.png,träge,l,AG12SE,2023-08-28_19h28.44.365,openIAT,2023.1.3,MacIntel,55.55555556,
,,,,,,a,1,1.162,,,,,,,,,1.162,1,0,1,1,18,1,stimuli/blank.png,human,a,AG12SE,2023-08-28_19h28.44.365,openIAT,2023.1.3,MacIntel,55.55555556,
,,,,,,a,1,0.733,,,,,,,,,0.733,1,0,2,2,14,1,stimuli/blank.png,gerecht,a,AG12SE,2023-08-28_19h28.44.365,openIAT,2023.1.3,MacIntel,55.55555556,
,,,,,,a,1,0.585,,,,,,,,,0.585,1,0,3,3,4,1,stimuli/blank.png,gerecht,a,AG12SE,2023-08-28_19h28.44.365,openIAT,2023.1.3,MacIntel,55.55555556,
,,,,,,l,1,0.637,,,,,,,,,0.637,1,0,4,4,9,1,stimuli/blank.png,lustlos,l,AG12SE,2023-08-28_19h28.44.365,openIAT,2023.1.3,MacIntel,55.55555556,
,,,,,,l,1,0.63,,,,,,,,,0.63,1,0,5,5,3,1,stimuli/blank.png,verlogen,l,AG12SE,2023-08-28_19h28.44.365,openIAT,2023.1.3,MacIntel,55.55555556,
,,,,,,a,1,0.728,,,,,,,,,0.728,1,0,6,6,0,1,stimuli/blank.png,aktiv,a,AG12SE,2023-08-28_19h28.44.365,openIAT,2023.1.3,MacIntel,55.55555556,
,,,,,,a,1,0.954,,,,,,,,,0.954,1,0,7,7,16,1,stimuli/blank.png,begabt,a,AG12SE,2023-08-28_19h28.44.365,openIAT,2023.1.3,MacIntel,55.55555556,
,,,,,,l,1,0.653,,,,,,,,,0.653,1,0,8,8,13,1,stimuli/blank.png,verlogen,l,AG12SE,2023-08-28_19h28.44.365,openIAT,2023.1.3,MacIntel,55.55555556,
,,,,,,a,1,0.579,,,,,,,,,0.579,1,0,9,9,10,1,stimuli/blank.png,aktiv,a,AG12SE,2023-08-28_19h28.44.365,openIAT,2023.1.3,MacIntel,55.55555556,
,,,,,,a,1,0.57,,,,,,,,,0.57,1,0,10,10,2,1,stimuli/blank.png,fröhlich,a,AG12SE,2023-08-28_19h28.44.365,openIAT,2023.1.3,MacIntel,55.55555556,
,,,,,,a,1,0.554,,,,,,,,,0.554,1,0,11,11,6,1,stimuli/blank.png,begabt,a,AG12SE,2023-08-28_19h28.44.365,openIAT,2023.1.3,MacIntel,55.55555556,
,,,,,,a,1,0.571,,,,,,,,,0.571,1,0,12,12,8,1,stimuli/blank.png,human,a,AG12SE,2023-08-28_19h28.44.365,openIAT,2023.1.3,MacIntel,55.55555556,
,,,,,,l,1,0.565,,,,,,,,,0.565,1,0,13,13,11,1,stimuli/blank.png,brutal,l,AG12SE,2023-08-28_19h28.44.365,openIAT,2023.1.3,MacIntel,55.55555556,
,,,,,,l,1,0.649,,,,,,,,,0.649,1,0,14,14,5,1,stimuli/blank.png,träge,l,AG12SE,2023-08-28_19h28.44.365,openIAT,2023.1.3,MacIntel,55.55555556,
,,,,,,l,1,0.571,,,,,,,,,0.571,1,0,15,15,1,1,stimuli/blank.png,brutal,l,AG12SE,2023-08-28_19h28.44.365,openIAT,2023.1.3,MacIntel,55.55555556,
,,,,,,l,1,0.635,,,,,,,,,0.635,1,0,16,16,7,1,stimuli/blank.png,eitel,l,AG12SE,2023-08-28_19h28.44.365,openIAT,2023.1.3,MacIntel,55.55555556,
,,,,,,a,1,0.533,,,,,,,,,0.533,1,0,17,17,12,1,stimuli/blank.png,fröhlich,a,AG12SE,2023-08-28_19h28.44.365,openIAT,2023.1.3,MacIntel,55.55555556,
,,,,,,a,0,0.547,,,,,,,,,0.547,0,0,18,18,17,1,stimuli/blank.png,eitel,l,AG12SE,2023-08-28_19h28.44.365,openIAT,2023.1.3,MacIntel,55.55555556,
,,,,,,l,1,0.604,,,,,,,,,0.604,1,0,19,19,19,1,stimuli/blank.png,lustlos,l,AG12SE,2023-08-28_19h28.44.365,openIAT,2023.1.3,MacIntel,55.55555556,
,,,,,,a,1,0.539,,,,,,,,,0.539,1,0,0,0,13,1,stimuli/blank.png,mir,a,AG12SE,2023-08-28_19h28.44.365,openIAT,2023.1.3,MacIntel,55.55555556,
,,,,,,a,1,0.682,,,,,,,,,0.682,1,0,1,1,9,1,stimuli/blank.png,selbst,a,AG12SE,2023-08-28_19h28.44.365,openIAT,2023.1.3,MacIntel,55.55555556,
,,,,,,l,1,0.548,,,,,,,,,0.548,1,0,2,2,0,1,stimuli/blank.png,andere,l,AG12SE,2023-08-28_19h28.44.365,openIAT,2023.1.3,MacIntel,55.55555556,
,,,,,,a,1,0.656,,,,,,,,,0.656,1,0,3,3,19,1,stimuli/blank.png,selbst,a,AG12SE,2023-08-28_19h28.44.365,openIAT,2023.1.3,MacIntel,55.55555556,
,,,,,,l,1,0.654,,,,,,,,,0.654,1,0,4,4,6,1,stimuli/blank.png,euch,l,AG12SE,2023-08-28_19h28.44.365,openIAT,2023.1.3,MacIntel,55.55555556,
,,,,,,l,1,0.45,,,,,,,,,0.45,1,0,5,5,16,1,stimuli/blank.png,euch,l,AG12SE,2023-08-28_19h28.44.365,openIAT,2023.1.3,MacIntel,55.55555556,
,,,,,,l,1,0.613,,,,,,,,,0.613,1,0,6,6,8,1,stimuli/blank.png,eure,l,AG12SE,2023-08-28_19h28.44.365,openIAT,2023.1.3,MacIntel,55.55555556,
,,,,,,l,1,0.654,,,,,,,,,0.654,1,0,7,7,14,1,stimuli/blank.png,jene,l,AG12SE,2023-08-28_19h28.44.365,openIAT,2023.1.3,MacIntel,55.55555556,
,,,,,,a,1,0.48,,,,,,,,,0.48,1,0,8,8,1,1,stimuli/blank.png,ich,a,AG12SE,2023-08-28_19h28.44.365,openIAT,2023.1.3,MacIntel,55.55555556,
,,,,,,a,1,0.472,,,,,,,,,0.472,1,0,9,9,15,1,stimuli/blank.png,meine,a,AG12SE,2023-08-28_19h28.44.365,openIAT,2023.1.3,MacIntel,55.55555556,
,,,,,,l,1,0.881,,,,,,,,,0.881,1,0,10,10,12,1,stimuli/blank.png,ihr,l,AG12SE,2023-08-28_19h28.44.365,openIAT,2023.1.3,MacIntel,55.55555556,
,,,,,,l,1,0.504,,,,,,,,,0.504,1,0,11,11,10,1,stimuli/blank.png,andere,l,AG12SE,2023-08-28_19h28.44.365,openIAT,2023.1.3,MacIntel,55.55555556,
,,,,,,a,1,0.8,,,,,,,,,0.8,1,0,12,12,3,1,stimuli/blank.png,mir,a,AG12SE,2023-08-28_19h28.44.365,openIAT,2023.1.3,MacIntel,55.55555556,
,,,,,,a,1,0.655,,,,,,,,,0.655,1,0,13,13,7,1,stimuli/blank.png,eigene,a,AG12SE,2023-08-28_19h28.44.365,openIAT,2023.1.3,MacIntel,55.55555556,
,,,,,,a,1,0.498,,,,,,,,,0.498,1,0,14,14,11,1,stimuli/blank.png,ich,a,AG12SE,2023-08-28_19h28.44.365,openIAT,2023.1.3,MacIntel,55.55555556,
,,,,,,a,1,0.597,,,,,,,,,0.597,1,0,15,15,17,1,stimuli/blank.png,eigene,a,AG12SE,2023-08-28_19h28.44.365,openIAT,2023.1.3,MacIntel,55.55555556,
,,,,,,l,1,0.405,,,,,,,,,0.405,1,0,16,16,18,1,stimuli/blank.png,eure,l,AG12SE,2023-08-28_19h28.44.365,openIAT,2023.1.3,MacIntel,55.55555556,
,,,,,,l,1,0.622,,,,,,,,,0.622,1,0,17,17,4,1,stimuli/blank.png,jene,l,AG12SE,2023-08-28_19h28.44.365,openIAT,2023.1.3,MacIntel,55.55555556,
,,,,,,l,1,0.538,,,,,,,,,0.538,1,0,18,18,2,1,stimuli/blank.png,ihr,l,AG12SE,2023-08-28_19h28.44.365,openIAT,2023.1.3,MacIntel,55.55555556,
,,,,,,a,1,0.609,,,,,,,,,0.609,1,0,19,19,5,1,stimuli/blank.png,meine,a,AG12SE,2023-08-28_19h28.44.365,openIAT,2023.1.3,MacIntel,55.55555556,
,,,,,,l,1,0.668,,,,,,,,,0.668,1,0,0,0,11,1,stimuli/blank.png,brutal,l,AG12SE,2023-08-28_19h28.44.365,openIAT,2023.1.3,MacIntel,55.55555556,
,,,,,,l,1,0.65,,,,,,,,,0.65,1,0,1,1,15,1,stimuli/blank.png,träge,l,AG12SE,2023-08-28_19h28.44.365,openIAT,2023.1.3,MacIntel,55.55555556,
,,,,,,a,1,0.732,,,,,,,,,0.732,1,0,2,2,14,1,stimuli/blank.png,gerecht,a,AG12SE,2023-08-28_19h28.44.365,openIAT,2023.1.3,MacIntel,55.55555556,
,,,,,,a,1,0.499,,,,,,,,,0.499,1,0,3,3,5,1,stimuli/blank.png,meine,a,AG12SE,2023-08-28_19h28.44.365,openIAT,2023.1.3,MacIntel,55.55555556,
,,,,,,l,1,0.616,,,,,,,,,0.616,1,0,4,4,13,1,stimuli/blank.png,verlogen,l,AG12SE,2023-08-28_19h28.44.365,openIAT,2023.1.3,MacIntel,55.55555556,
,,,,,,a,1,0.508,,,,,,,,,0.508,1,0,5,5,12,1,stimuli/blank.png,fröhlich,a,AG12SE,2023-08-28_19h28.44.365,openIAT,2023.1.3,MacIntel,55.55555556,
,,,,,,l,1,0.763,,,,,,,,,0.763,1,0,6,6,2,1,stimuli/blank.png,ihr,l,AG12SE,2023-08-28_19h28.44.365,openIAT,2023.1.3,MacIntel,55.55555556,
,,,,,,l,1,0.512,,,,,,,,,0.512,1,0,7,7,8,1,stimuli/blank.png,eure,l,AG12SE,2023-08-28_19h28.44.365,openIAT,2023.1.3,MacIntel,55.55555556,
,,,,,,a,1,0.6,,,,,,,,,0.6,1,0,8,8,16,1,stimuli/blank.png,begabt,a,AG12SE,2023-08-28_19h28.44.365,openIAT,2023.1.3,MacIntel,55.55555556,
,,,,,,l,1,0.529,,,,,,,,,0.529,1,0,9,9,0,1,stimuli/blank.png,andere,l,AG12SE,2023-08-28_19h28.44.365,openIAT,2023.1.3,MacIntel,55.55555556,
,,,,,,l,1,0.574,,,,,,,,,0.574,1,0,10,10,4,1,stimuli/blank.png,jene,l,AG12SE,2023-08-28_19h28.44.365,openIAT,2023.1.3,MacIntel,55.55555556,
,,,,,,l,1,0.564,,,,,,,,,0.564,1,0,11,11,17,1,stimuli/blank.png,eitel,l,AG12SE,2023-08-28_19h28.44.365,openIAT,2023.1.3,MacIntel,55.55555556,
,,,,,,a,1,0.548,,,,,,,,,0.548,1,0,12,12,9,1,stimuli/blank.png,selbst,a,AG12SE,2023-08-28_19h28.44.365,openIAT,2023.1.3,MacIntel,55.55555556,
,,,,,,l,1,0.516,,,,,,,,,0.516,1,0,13,13,6,1,stimuli/blank.png,euch,l,AG12SE,2023-08-28_19h28.44.365,openIAT,2023.1.3,MacIntel,55.55555556,
,,,,,,a,1,0.514,,,,,,,,,0.514,1,0,14,14,1,1,stimuli/blank.png,ich,a,AG12SE,2023-08-28_19h28.44.365,openIAT,2023.1.3,MacIntel,55.55555556,
,,,,,,a,1,0.888,,,,,,,,,0.888,1,0,15,15,7,1,stimuli/blank.png,eigene,a,AG12SE,2023-08-28_19h28.44.365,openIAT,2023.1.3,MacIntel,55.55555556,
,,,,,,a,1,0.523,,,,,,,,,0.523,1,0,16,16,3,1,stimuli/blank.png,mir,a,AG12SE,2023-08-28_19h28.44.365,openIAT,2023.1.3,MacIntel,55.55555556,
,,,,,,a,1,0.499,,,,,,,,,0.499,1,0,17,17,18,1,stimuli/blank.png,human,a,AG12SE,2023-08-28_19h28.44.365,openIAT,2023.1.3,MacIntel,55.55555556,
,,,,,,l,1,0.603,,,,,,,,,0.603,1,0,18,18,19,1,stimuli/blank.png,lustlos,l,AG12SE,2023-08-28_19h28.44.365,openIAT,2023.1.3,MacIntel,55.55555556,
,,,,,,a,1,0.663,,,,,,,,,0.663,1,0,19,19,10,1,stimuli/blank.png,aktiv,a,AG12SE,2023-08-28_19h28.44.365,openIAT,2023.1.3,MacIntel,55.55555556,
,,,,,,a,1,0.543,,,,,,,,,0.543,1,0,0,0,10,1,stimuli/blank.png,aktiv,a,AG12SE,2023-08-28_19h28.44.365,openIAT,2023.1.3,MacIntel,55.55555556,
,,,,,,a,1,0.463,,,,,,,,,0.463,1,0,1,1,23,1,stimuli/blank.png,mir,a,AG12SE,2023-08-28_19h28.44.365,openIAT,2023.1.3,MacIntel,55.55555556,
,,,,,,a,1,0.586,,,,,,,,,0.586,1,0,2,2,14,1,stimuli/blank.png,gerecht,a,AG12SE,2023-08-28_19h28.44.365,openIAT,2023.1.3,MacIntel,55.55555556,
,,,,,,a,1,0.484,,,,,,,,,0.484,1,0,3,3,25,1,stimuli/blank.png,meine,a,AG12SE,2023-08-28_19h28.44.365,openIAT,2023.1.3,MacIntel,55.55555556,
,,,,,,l,1,0.666,,,,,,,,,0.666,1,0,4,4,26,1,stimuli/blank.png,euch,l,AG12SE,2023-08-28_19h28.44.365,openIAT,2023.1.3,MacIntel,55.55555556,
,,,,,,l,1,0.496,,,,,,,,,0.496,1,0,5,5,33,1,stimuli/blank.png,verlogen,l,AG12SE,2023-08-28_19h28.44.365,openIAT,2023.1.3,MacIntel,55.55555556,
,,,,,,l,1,0.563,,,,,,,,,0.563,1,0,6,6,17,1,stimuli/blank.png,eitel,l,AG12SE,2023-08-28_19h28.44.365,openIAT,2023.1.3,MacIntel,55.55555556,
,,,,,,a,1,0.596,,,,,,,,,0.596,1,0,7,7,29,1,stimuli/blank.png,selbst,a,AG12SE,2023-08-28_19h28.44.365,openIAT,2023.1.3,MacIntel,55.55555556,
,,,,,,a,1,0.556,,,,,,,,,0.556,1,0,8,8,3,1,stimuli/blank.png,mir,a,AG12SE,2023-08-28_19h28.44.365,openIAT,2023.1.3,MacIntel,55.55555556,
,,,,,,l,1,0.548,,,,,,,,,0.548,1,0,9,9,4,1,stimuli/blank.png,jene,l,AG12SE,2023-08-28_19h28.44.365,openIAT,2023.1.3,MacIntel,55.55555556,
,,,,,,a,1,0.514,,,,,,,,,0.514,1,0,10,10,1,1,stimuli/blank.png,ich,a,AG12SE,2023-08-28_19h28.44.365,openIAT,2023.1.3,MacIntel,55.55555556,
,,,,,,a,0,0.782,,,,,,,,,0.782,0,0,11,11,6,1,stimuli/blank.png,euch,l,AG12SE,2023-08-28_19h28.44.365,openIAT,2023.1.3,MacIntel,55.55555556,
,,,,,,a,1,0.68,,,,,,,,,0.68,1,0,12,12,9,1,stimuli/blank.png,selbst,a,AG12SE,2023-08-28_19h28.44.365,openIAT,2023.1.3,MacIntel,55.55555556,
,,,,,,a,1,0.765,,,,,,,,,0.765,1,0,13,13,36,1,stimuli/blank.png,begabt,a,AG12SE,2023-08-28_19h28.44.365,openIAT,2023.1.3,MacIntel,55.55555556,
,,,,,,a,1,0.506,,,,,,,,,0.506,1,0,14,14,5,1,stimuli/blank.png,meine,a,AG12SE,2023-08-28_19h28.44.365,openIAT,2023.1.3,MacIntel,55.55555556,
,,,,,,a,1,0.84,,,,,,,,,0.84,1,0,15,15,12,1,stimuli/blank.png,fröhlich,a,AG12SE,2023-08-28_19h28.44.365,openIAT,2023.1.3,MacIntel,55.55555556,
,,,,,,l,1,0.598,,,,,,,,,0.598,1,0,16,16,39,1,stimuli/blank.png,lustlos,l,AG12SE,2023-08-28_19h28.44.365,openIAT,2023.1.3,MacIntel,55.55555556,
,,,,,,a,1,0.547,,,,,,,,,0.547,1,0,17,17,21,1,stimuli/blank.png,ich,a,AG12SE,2023-08-28_19h28.44.365,openIAT,2023.1.3,MacIntel,55.55555556,
,,,,,,a,1,0.496,,,,,,,,,0.496,1,0,18,18,32,1,stimuli/blank.png,fröhlich,a,AG12SE,2023-08-28_19h28.44.365,openIAT,2023.1.3,MacIntel,55.55555556,
,,,,,,a,1,0.781,,,,,,,,,0.781,1,0,19,19,34,1,stimuli/blank.png,gerecht,a,AG12SE,2023-08-28_19h28.44.365,openIAT,2023.1.3,MacIntel,55.55555556,
,,,,,,l,1,0.614,,,,,,,,,0.614,1,0,20,20,11,1,stimuli/blank.png,brutal,l,AG12SE,2023-08-28_19h28.44.365,openIAT,2023.1.3,MacIntel,55.55555556,
,,,,,,a,1,0.58,,,,,,,,,0.58,1,0,21,21,27,1,stimuli/blank.png,eigene,a,AG12SE,2023-08-28_19h28.44.365,openIAT,2023.1.3,MacIntel,55.55555556,
,,,,,,a,1,0.656,,,,,,,,,0.656,1,0,22,22,16,1,stimuli/blank.png,begabt,a,AG12SE,2023-08-28_19h28.44.365,openIAT,2023.1.3,MacIntel,55.55555556,
,,,,,,l,1,0.613,,,,,,,,,0.613,1,0,23,23,28,1,stimuli/blank.png,eure,l,AG12SE,2023-08-28_19h28.44.365,openIAT,2023.1.3,MacIntel,55.55555556,
,,,,,,a,1,0.913,,,,,,,,,0.913,1,0,24,24,7,1,stimuli/blank.png,eigene,a,AG12SE,2023-08-28_19h28.44.365,openIAT,2023.1.3,MacIntel,55.55555556,
,,,,,,l,1,0.93,,,,,,,,,0.93,1,0,25,25,35,1,stimuli/blank.png,träge,l,AG12SE,2023-08-28_19h28.44.365,openIAT,2023.1.3,MacIntel,55.55555556,
,,,,,,a,1,0.939,,,,,,,,,0.939,1,0,26,26,38,1,stimuli/blank.png,human,a,AG12SE,2023-08-28_19h28.44.365,openIAT,2023.1.3,MacIntel,55.55555556,
,,,,,,a,0,0.613,,,,,,,,,0.613,0,0,27,27,37,1,stimuli/blank.png,eitel,l,AG12SE,2023-08-28_19h28.44.365,openIAT,2023.1.3,MacIntel,55.55555556,
,,,,,,l,1,0.68,,,,,,,,,0.68,1,0,28,28,0,1,stimuli/blank.png,andere,l,AG12SE,2023-08-28_19h28.44.365,openIAT,2023.1.3,MacIntel,55.55555556,
,,,,,,l,1,0.551,,,,,,,,,0.551,1,0,29,29,13,1,stimuli/blank.png,verlogen,l,AG12SE,2023-08-28_19h28.44.365,openIAT,2023.1.3,MacIntel,55.55555556,
,,,,,,a,1,0.657,,,,,,,,,0.657,1,0,30,30,30,1,stimuli/blank.png,aktiv,a,AG12SE,2023-08-28_19h28.44.365,openIAT,2023.1.3,MacIntel,55.55555556,
,,,,,,l,1,0.5,,,,,,,,,0.5,1,0,31,31,19,1,stimuli/blank.png,lustlos,l,AG12SE,2023-08-28_19h28.44.365,openIAT,2023.1.3,MacIntel,55.55555556,
,,,,,,l,1,0.588,,,,,,,,,0.588,1,0,32,32,20,1,stimuli/blank.png,andere,l,AG12SE,2023-08-28_19h28.44.365,openIAT,2023.1.3,MacIntel,55.55555556,
,,,,,,l,1,0.546,,,,,,,,,0.546,1,0,33,33,8,1,stimuli/blank.png,eure,l,AG12SE,2023-08-28_19h28.44.365,openIAT,2023.1.3,MacIntel,55.55555556,
,,,,,,a,1,0.496,,,,,,,,,0.496,1,0,34,34,18,1,stimuli/blank.png,human,a,AG12SE,2023-08-28_19h28.44.365,openIAT,2023.1.3,MacIntel,55.55555556,
,,,,,,l,1,0.523,,,,,,,,,0.523,1,0,35,35,15,1,stimuli/blank.png,träge,l,AG12SE,2023-08-28_19h28.44.365,openIAT,2023.1.3,MacIntel,55.55555556,
,,,,,,l,1,0.599,,,,,,,,,0.599,1,0,36,36,22,1,stimuli/blank.png,ihr,l,AG12SE,2023-08-28_19h28.44.365,openIAT,2023.1.3,MacIntel,55.55555556,
,,,,,,l,1,0.474,,,,,,,,,0.474,1,0,37,37,31,1,stimuli/blank.png,brutal,l,AG12SE,2023-08-28_19h28.44.365,openIAT,2023.1.3,MacIntel,55.55555556,
,,,,,,l,1,0.505,,,,,,,,,0.505,1,0,38,38,24,1,stimuli/blank.png,jene,l,AG12SE,2023-08-28_19h28.44.365,openIAT,2023.1.3,MacIntel,55.55555556,
,,,,,,l,1,0.441,,,,,,,,,0.441,1,0,39,39,2,1,stimuli/blank.png,ihr,l,AG12SE,2023-08-28_19h28.44.365,openIAT,2023.1.3,MacIntel,55.55555556,
,,,,,,a,1,0.781,,,,,,,,,0.781,1,0,0,0,10,1,stimuli/blank.png,andere,a,AG12SE,2023-08-28_19h28.44.365,openIAT,2023.1.3,MacIntel,55.55555556,
,,,,,,l,1,0.532,,,,,,,,,0.532,1,0,1,1,5,1,stimuli/blank.png,meine,l,AG12SE,2023-08-28_19h28.44.365,openIAT,2023.1.3,MacIntel,55.55555556,
,,,,,,a,0,0.739,,,,,,,,,0.739,0,0,2,2,11,1,stimuli/blank.png,ich,l,AG12SE,2023-08-28_19h28.44.365,openIAT,2023.1.3,MacIntel,55.55555556,
,,,,,,a,1,0.848,,,,,,,,,0.848,1,0,3,3,12,1,stimuli/blank.png,ihr,a,AG12SE,2023-08-28_19h28.44.365,openIAT,2023.1.3,MacIntel,55.55555556,
,,,,,,l,1,0.789,,,,,,,,,0.789,1,0,4,4,13,1,stimuli/blank.png,mir,l,AG12SE,2023-08-28_19h28.44.365,openIAT,2023.1.3,MacIntel,55.55555556,
,,,,,,l,0,0.569,,,,,,,,,0.569,0,0,5,5,18,1,stimuli/blank.png,eure,a,AG12SE,2023-08-28_19h28.44.365,openIAT,2023.1.3,MacIntel,55.55555556,
,,,,,,l,1,0.763,,,,,,,,,0.763,1,0,6,6,1,1,stimuli/blank.png,ich,l,AG12SE,2023-08-28_19h28.44.365,openIAT,2023.1.3,MacIntel,55.55555556,
,,,,,,l,1,1.573,,,,,,,,,1.573,1,0,7,7,9,1,stimuli/blank.png,selbst,l,AG12SE,2023-08-28_19h28.44.365,openIAT,2023.1.3,MacIntel,55.55555556,
,,,,,,a,1,0.734,,,,,,,,,0.734,1,0,8,8,14,1,stimuli/blank.png,jene,a,AG12SE,2023-08-28_19h28.44.365,openIAT,2023.1.3,MacIntel,55.55555556,
,,,,,,l,1,1.117,,,,,,,,,1.117,1,0,9,9,15,1,stimuli/blank.png,meine,l,AG12SE,2023-08-28_19h28.44.365,openIAT,2023.1.3,MacIntel,55.55555556,
,,,,,,a,1,2.072,,,,,,,,,2.072,1,0,10,10,8,1,stimuli/blank.png,eure,a,AG12SE,2023-08-28_19h28.44.365,openIAT,2023.1.3,MacIntel,55.55555556,
,,,,,,l,1,0.98,,,,,,,,,0.98,1,0,11,11,7,1,stimuli/blank.png,eigene,l,AG12SE,2023-08-28_19h28.44.365,openIAT,2023.1.3,MacIntel,55.55555556,
,,,,,,a,1,0.706,,,,,,,,,0.706,1,0,12,12,4,1,stimuli/blank.png,jene,a,AG12SE,2023-08-28_19h28.44.365,openIAT,2023.1.3,MacIntel,55.55555556,
,,,,,,a,1,0.798,,,,,,,,,0.798,1,0,13,13,16,1,stimuli/blank.png,euch,a,AG12SE,2023-08-28_19h28.44.365,openIAT,2023.1.3,MacIntel,55.55555556,
,,,,,,a,1,0.477,,,,,,,,,0.477,1,0,14,14,6,1,stimuli/blank.png,euch,a,AG12SE,2023-08-28_19h28.44.365,openIAT,2023.1.3,MacIntel,55.55555556,
,,,,,,l,1,0.633,,,,,,,,,0.633,1,0,15,15,3,1,stimuli/blank.png,mir,l,AG12SE,2023-08-28_19h28.44.365,openIAT,2023.1.3,MacIntel,55.55555556,
,,,,,,l,1,0.484,,,,,,,,,0.484,1,0,16,16,17,1,stimuli/blank.png,eigene,l,AG12SE,2023-08-28_19h28.44.365,openIAT,2023.1.3,MacIntel,55.55555556,
,,,,,,a,1,0.664,,,,,,,,,0.664,1,0,17,17,0,1,stimuli/blank.png,andere,a,AG12SE,2023-08-28_19h28.44.365,openIAT,2023.1.3,MacIntel,55.55555556,
,,,,,,l,0,0.513,,,,,,,,,0.513,0,0,18,18,2,1,stimuli/blank.png,ihr,a,AG12SE,2023-08-28_19h28.44.365,openIAT,2023.1.3,MacIntel,55.55555556,
,,,,,,l,1,0.856,,,,,,,,,0.856,1,0,19,19,19,1,stimuli/blank.png,selbst,l,AG12SE,2023-08-28_19h28.44.365,openIAT,2023.1.3,MacIntel,55.55555556,
,,,,,,l,1,1.029,,,,,,,,,1.029,1,0,0,0,7,1,stimuli/blank.png,eigene,l,AG12SE,2023-08-28_19h28.44.365,openIAT,2023.1.3,MacIntel,55.55555556,
,,,,,,l,1,1.263,,,,,,,,,1.263,1,0,1,1,1,1,stimuli/blank.png,ich,l,AG12SE,2023-08-28_19h28.44.365,openIAT,2023.1.3,MacIntel,55.55555556,
,,,,,,l,1,0.705,,,,,,,,,0.705,1,0,2,2,5,1,stimuli/blank.png,meine,l,AG12SE,2023-08-28_19h28.44.365,openIAT,2023.1.3,MacIntel,55.55555556,
,,,,,,l,1,0.606,,,,,,,,,0.606,1,0,3,3,3,1,stimuli/blank.png,mir,l,AG12SE,2023-08-28_19h28.44.365,openIAT,2023.1.3,MacIntel,55.55555556,
,,,,,,l,1,0.622,,,,,,,,,0.622,1,0,4,4,17,1,stimuli/blank.png,eitel,l,AG12SE,2023-08-28_19h28.44.365,openIAT,2023.1.3,MacIntel,55.55555556,
,,,,,,a,1,0.797,,,,,,,,,0.797,1,0,5,5,6,1,stimuli/blank.png,euch,a,AG12SE,2023-08-28_19h28.44.365,openIAT,2023.1.3,MacIntel,55.55555556,
,,,,,,a,1,1.314,,,,,,,,,1.314,1,0,6,6,12,1,stimuli/blank.png,fröhlich,a,AG12SE,2023-08-28_19h28.44.365,openIAT,2023.1.3,MacIntel,55.55555556,
,,,,,,l,1,0.837,,,,,,,,,0.837,1,0,7,7,15,1,stimuli/blank.png,träge,l,AG12SE,2023-08-28_19h28.44.365,openIAT,2023.1.3,MacIntel,55.55555556,
,,,,,,a,1,0.746,,,,,,,,,0.746,1,0,8,8,14,1,stimuli/blank.png,gerecht,a,AG12SE,2023-08-28_19h28.44.365,openIAT,2023.1.3,MacIntel,55.55555556,
,,,,,,a,1,1.024,,,,,,,,,1.024,1,0,9,9,4,1,stimuli/blank.png,jene,a,AG12SE,2023-08-28_19h28.44.365,openIAT,2023.1.3,MacIntel,55.55555556,
,,,,,,l,1,1.255,,,,,,,,,1.255,1,0,10,10,11,1,stimuli/blank.png,brutal,l,AG12SE,2023-08-28_19h28.44.365,openIAT,2023.1.3,MacIntel,55.55555556,
,,,,,,a,0,0.93,,,,,,,,,0.93,0,0,11,11,9,1,stimuli/blank.png,selbst,l,AG12SE,2023-08-28_19h28.44.365,openIAT,2023.1.3,MacIntel,55.55555556,
,,,,,,a,1,1.104,,,,,,,,,1.104,1,0,12,12,10,1,stimuli/blank.png,aktiv,a,AG12SE,2023-08-28_19h28.44.365,openIAT,2023.1.3,MacIntel,55.55555556,
,,,,,,a,1,1.588,,,,,,,,,1.588,1,0,13,13,8,1,stimuli/blank.png,eure,a,AG12SE,2023-08-28_19h28.44.365,openIAT,2023.1.3,MacIntel,55.55555556,
,,,,,,l,1,0.838,,,,,,,,,0.838,1,0,14,14,19,1,stimuli/blank.png,lustlos,l,AG12SE,2023-08-28_19h28.44.365,openIAT,2023.1.3,MacIntel,55.55555556,
,,,,,,l,1,0.601,,,,,,,,,0.601,1,0,15,15,13,1,stimuli/blank.png,verlogen,l,AG12SE,2023-08-28_19h28.44.365,openIAT,2023.1.3,MacIntel,55.55555556,
,,,,,,l,0,0.653,,,,,,,,,0.653,0,0,16,16,2,1,stimuli/blank.png,ihr,a,AG12SE,2023-08-28_19h28.44.365,openIAT,2023.1.3,MacIntel,55.55555556,
,,,,,,a,1,1.463,,,,,,,,,1.463,1,0,17,17,0,1,stimuli/blank.png,andere,a,AG12SE,2023-08-28_19h28.44.365,openIAT,2023.1.3,MacIntel,55.55555556,
,,,,,,a,1,1.182,,,,,,,,,1.182,1,0,18,18,16,1,stimuli/blank.png,begabt,a,AG12SE,2023-08-28_19h28.44.365,openIAT,2023.1.3,MacIntel,55.55555556,
,,,,,,a,1,1.955,,,,,,,,,1.955,1,0,19,19,18,1,stimuli/blank.png,human,a,AG12SE,2023-08-28_19h28.44.365,openIAT,2023.1.3,MacIntel,55.55555556,
,,,,,,l,1,0.867,,,,,,,,,0.867,1,0,0,0,33,1,stimuli/blank.png,verlogen,l,AG12SE,2023-08-28_19h28.44.365,openIAT,2023.1.3,MacIntel,55.55555556,
,,,,,,l,1,1.089,,,,,,,,,1.089,1,0,1,1,3,1,stimuli/blank.png,mir,l,AG12SE,2023-08-28_19h28.44.365,openIAT,2023.1.3,MacIntel,55.55555556,
,,,,,,a,1,0.779,,,,,,,,,0.779,1,0,2,2,30,1,stimuli/blank.png,aktiv,a,AG12SE,2023-08-28_19h28.44.365,openIAT,2023.1.3,MacIntel,55.55555556,
,,,,,,l,1,1.362,,,,,,,,,1.362,1,0,3,3,29,1,stimuli/blank.png,selbst,l,AG12SE,2023-08-28_19h28.44.365,openIAT,2023.1.3,MacIntel,55.55555556,
,,,,,,l,1,1.013,,,,,,,,,1.013,1,0,4,4,15,1,stimuli/blank.png,träge,l,AG12SE,2023-08-28_19h28.44.365,openIAT,2023.1.3,MacIntel,55.55555556,
,,,,,,l,1,0.73,,,,,,,,,0.73,1,0,5,5,23,1,stimuli/blank.png,mir,l,AG12SE,2023-08-28_19h28.44.365,openIAT,2023.1.3,MacIntel,55.55555556,
,,,,,,l,1,0.698,,,,,,,,,0.698,1,0,6,6,27,1,stimuli/blank.png,eigene,l,AG12SE,2023-08-28_19h28.44.365,openIAT,2023.1.3,MacIntel,55.55555556,
,,,,,,a,1,1.154,,,,,,,,,1.154,1,0,7,7,22,1,stimuli/blank.png,ihr,a,AG12SE,2023-08-28_19h28.44.365,openIAT,2023.1.3,MacIntel,55.55555556,
,,,,,,a,1,0.889,,,,,,,,,0.889,1,0,8,8,26,1,stimuli/blank.png,euch,a,AG12SE,2023-08-28_19h28.44.365,openIAT,2023.1.3,MacIntel,55.55555556,
,,,,,,l,1,0.73,,,,,,,,,0.73,1,0,9,9,17,1,stimuli/blank.png,eitel,l,AG12SE,2023-08-28_19h28.44.365,openIAT,2023.1.3,MacIntel,55.55555556,
,,,,,,a,1,0.748,,,,,,,,,0.748,1,0,10,10,24,1,stimuli/blank.png,jene,a,AG12SE,2023-08-28_19h28.44.365,openIAT,2023.1.3,MacIntel,55.55555556,
,,,,,,a,1,0.829,,,,,,,,,0.829,1,0,11,11,0,1,stimuli/blank.png,andere,a,AG12SE,2023-08-28_19h28.44.365,openIAT,2023.1.3,MacIntel,55.55555556,
,,,,,,l,1,0.584,,,,,,,,,0.584,1,0,12,12,5,1,stimuli/blank.png,meine,l,AG12SE,2023-08-28_19h28.44.365,openIAT,2023.1.3,MacIntel,55.55555556,
,,,,,,l,1,0.773,,,,,,,,,0.773,1,0,13,13,7,1,stimuli/blank.png,eigene,l,AG12SE,2023-08-28_19h28.44.365,openIAT,2023.1.3,MacIntel,55.55555556,
,,,,,,a,1,0.618,,,,,,,,,0.618,1,0,14,14,28,1,stimuli/blank.png,eure,a,AG12SE,2023-08-28_19h28.44.365,openIAT,2023.1.3,MacIntel,55.55555556,
,,,,,,a,1,0.822,,,,,,,,,0.822,1,0,15,15,10,1,stimuli/blank.png,aktiv,a,AG12SE,2023-08-28_19h28.44.365,openIAT,2023.1.3,MacIntel,55.55555556,
,,,,,,a,1,0.529,,,,,,,,,0.529,1,0,16,16,38,1,stimuli/blank.png,human,a,AG12SE,2023-08-28_19h28.44.365,openIAT,2023.1.3,MacIntel,55.55555556,
,,,,,,l,1,0.571,,,,,,,,,0.571,1,0,17,17,11,1,stimuli/blank.png,brutal,l,AG12SE,2023-08-28_19h28.44.365,openIAT,2023.1.3,MacIntel,55.55555556,
,,,,,,l,1,0.584,,,,,,,,,0.584,1,0,18,18,21,1,stimuli/blank.png,ich,l,AG12SE,2023-08-28_19h28.44.365,openIAT,2023.1.3,MacIntel,55.55555556,
,,,,,,a,1,0.746,,,,,,,,,0.746,1,0,19,19,4,1,stimuli/blank.png,jene,a,AG12SE,2023-08-28_19h28.44.365,openIAT,2023.1.3,MacIntel,55.55555556,
,,,,,,l,1,0.914,,,,,,,,,0.914,1,0,20,20,19,1,stimuli/blank.png,lustlos,l,AG12SE,2023-08-28_19h28.44.365,openIAT,2023.1.3,MacIntel,55.55555556,
,,,,,,a,1,0.649,,,,,,,,,0.649,1,0,21,21,14,1,stimuli/blank.png,gerecht,a,AG12SE,2023-08-28_19h28.44.365,openIAT,2023.1.3,MacIntel,55.55555556,
,,,,,,l,1,0.583,,,,,,,,,0.583,1,0,22,22,25,1,stimuli/blank.png,meine,l,AG12SE,2023-08-28_19h28.44.365,openIAT,2023.1.3,MacIntel,55.55555556,
,,,,,,a,1,1.139,,,,,,,,,1.139,1,0,23,23,32,1,stimuli/blank.png,fröhlich,a,AG12SE,2023-08-28_19h28.44.365,openIAT,2023.1.3,MacIntel,55.55555556,
,,,,,,l,1,1.438,,,,,,,,,1.438,1,0,24,24,9,1,stimuli/blank.png,selbst,l,AG12SE,2023-08-28_19h28.44.365,openIAT,2023.1.3,MacIntel,55.55555556,
,,,,,,a,1,0.813,,,,,,,,,0.813,1,0,25,25,8,1,stimuli/blank.png,eure,a,AG12SE,2023-08-28_19h28.44.365,openIAT,2023.1.3,MacIntel,55.55555556,
,,,,,,a,0,0.773,,,,,,,,,0.773,0,0,26,26,31,1,stimuli/blank.png,brutal,l,AG12SE,2023-08-28_19h28.44.365,openIAT,2023.1.3,MacIntel,55.55555556,
,,,,,,a,1,0.752,,,,,,,,,0.752,1,0,27,27,20,1,stimuli/blank.png,andere,a,AG12SE,2023-08-28_19h28.44.365,openIAT,2023.1.3,MacIntel,55.55555556,
,,,,,,l,0,0.679,,,,,,,,,0.679,0,0,28,28,36,1,stimuli/blank.png,begabt,a,AG12SE,2023-08-28_19h28.44.365,openIAT,2023.1.3,MacIntel,55.55555556,
,,,,,,l,1,1.515,,,,,,,,,1.515,1,0,29,29,13,1,stimuli/blank.png,verlogen,l,AG12SE,2023-08-28_19h28.44.365,openIAT,2023.1.3,MacIntel,55.55555556,
,,,,,,a,1,1.213,,,,,,,,,1.213,1,0,30,30,12,1,stimuli/blank.png,fröhlich,a,AG12SE,2023-08-28_19h28.44.365,openIAT,2023.1.3,MacIntel,55.55555556,
,,,,,,l,1,0.848,,,,,,,,,0.848,1,0,31,31,35,1,stimuli/blank.png,träge,l,AG12SE,2023-08-28_19h28.44.365,openIAT,2023.1.3,MacIntel,55.55555556,
,,,,,,a,1,0.738,,,,,,,,,0.738,1,0,32,32,34,1,stimuli/blank.png,gerecht,a,AG12SE,2023-08-28_19h28.44.365,openIAT,2023.1.3,MacIntel,55.55555556,
,,,,,,a,1,0.997,,,,,,,,,0.997,1,0,33,33,6,1,stimuli/blank.png,euch,a,AG12SE,2023-08-28_19h28.44.365,openIAT,2023.1.3,MacIntel,55.55555556,
,,,,,,l,1,0.721,,,,,,,,,0.721,1,0,34,34,37,1,stimuli/blank.png,eitel,l,AG12SE,2023-08-28_19h28.44.365,openIAT,2023.1.3,MacIntel,55.55555556,
,,,,,,a,1,0.764,,,,,,,,,0.764,1,0,35,35,2,1,stimuli/blank.png,ihr,a,AG12SE,2023-08-28_19h28.44.365,openIAT,2023.1.3,MacIntel,55.55555556,
,,,,,,l,1,0.572,,,,,,,,,0.572,1,0,36,36,1,1,stimuli/blank.png,ich,l,AG12SE,2023-08-28_19h28.44.365,openIAT,2023.1.3,MacIntel,55.55555556,
,,,,,,a,1,0.648,,,,,,,,,0.648,1,0,37,37,18,1,stimuli/blank.png,human,a,AG12SE,2023-08-28_19h28.44.365,openIAT,2023.1.3,MacIntel,55.55555556,
,,,,,,a,1,0.872,,,,,,,,,0.872,1,0,38,38,16,1,stimuli/blank.png,begabt,a,AG12SE,2023-08-28_19h28.44.365,openIAT,2023.1.3,MacIntel,55.55555556,
,,,,,,l,1,0.701,,,,,,,,,0.701,1,0,39,39,39,1,stimuli/blank.png,lustlos,l,AG12SE,2023-08-28_19h28.44.365,openIAT,2023.1.3,MacIntel,55.55555556,
,,,,,,,,,,,,,,,,,,,,,,,,,,,AG12SE,2023-08-28_19h28.44.365,openIAT,2023.1.3,MacIntel,55.55555556,
