instr_done_touch.x,instr_done_touch.y,instr_done_touch.leftButton,instr_done_touch.midButton,instr_done_touch.rightButton,instr_done_touch.clicked_name,key_resp.keys,key_resp.corr,key_resp.rt,key_resp.duration,touch_resp.x,touch_resp.y,touch_resp.leftButton,touch_resp.midButton,touch_resp.rightButton,touch_resp.time,touch_resp.clicked_name,rt,corr,trials.thisRepN,trials.thisTrialN,trials.thisN,trials.thisIndex,trials.ran,stimImage,stimWord,CorrAns,participant,date,expName,psychopyVersion,OS,frameRate,return_tic
0.081481481,-0.413888889,1,0,0,instr_done_button,l,1,0.91,,,,,,,,,0.91,1,0,0,0,11,1,stimuli/blank.png,brutal,l,AN09RO,2023-08-01_22h08.10.213,openIAT,2023.1.3,Win32,59.95203837,
,,,,,,a,1,0.832,,,,,,,,,0.832,1,0,1,1,18,1,stimuli/blank.png,human,a,AN09RO,2023-08-01_22h08.10.213,openIAT,2023.1.3,Win32,59.95203837,
,,,,,,l,1,1.13,,,,,,,,,1.13,1,0,2,2,7,1,stimuli/blank.png,eitel,l,AN09RO,2023-08-01_22h08.10.213,openIAT,2023.1.3,Win32,59.95203837,
,,,,,,l,1,0.657,,,,,,,,,0.657,1,0,3,3,13,1,stimuli/blank.png,verlogen,l,AN09RO,2023-08-01_22h08.10.213,openIAT,2023.1.3,Win32,59.95203837,
,,,,,,a,1,0.898,,,,,,,,,0.898,1,0,4,4,10,1,stimuli/blank.png,aktiv,a,AN09RO,2023-08-01_22h08.10.213,openIAT,2023.1.3,Win32,59.95203837,
,,,,,,a,1,0.859,,,,,,,,,0.859,1,0,5,5,6,1,stimuli/blank.png,begabt,a,AN09RO,2023-08-01_22h08.10.213,openIAT,2023.1.3,Win32,59.95203837,
,,,,,,a,1,0.699,,,,,,,,,0.699,1,0,6,6,14,1,stimuli/blank.png,gerecht,a,AN09RO,2023-08-01_22h08.10.213,openIAT,2023.1.3,Win32,59.95203837,
,,,,,,l,1,0.722,,,,,,,,,0.722,1,0,7,7,19,1,stimuli/blank.png,lustlos,l,AN09RO,2023-08-01_22h08.10.213,openIAT,2023.1.3,Win32,59.95203837,
,,,,,,l,1,0.571,,,,,,,,,0.571,1,0,8,8,9,1,stimuli/blank.png,lustlos,l,AN09RO,2023-08-01_22h08.10.213,openIAT,2023.1.3,Win32,59.95203837,
,,,,,,l,1,0.678,,,,,,,,,0.678,1,0,9,9,3,1,stimuli/blank.png,verlogen,l,AN09RO,2023-08-01_22h08.10.213,openIAT,2023.1.3,Win32,59.95203837,
,,,,,,a,1,0.672,,,,,,,,,0.672,1,0,10,10,0,1,stimuli/blank.png,aktiv,a,AN09RO,2023-08-01_22h08.10.213,openIAT,2023.1.3,Win32,59.95203837,
,,,,,,a,1,0.785,,,,,,,,,0.785,1,0,11,11,16,1,stimuli/blank.png,begabt,a,AN09RO,2023-08-01_22h08.10.213,openIAT,2023.1.3,Win32,59.95203837,
,,,,,,l,1,0.725,,,,,,,,,0.725,1,0,12,12,15,1,stimuli/blank.png,träge,l,AN09RO,2023-08-01_22h08.10.213,openIAT,2023.1.3,Win32,59.95203837,
,,,,,,a,1,1.002,,,,,,,,,1.002,1,0,13,13,12,1,stimuli/blank.png,fröhlich,a,AN09RO,2023-08-01_22h08.10.213,openIAT,2023.1.3,Win32,59.95203837,
,,,,,,a,1,1.015,,,,,,,,,1.015,1,0,14,14,4,1,stimuli/blank.png,gerecht,a,AN09RO,2023-08-01_22h08.10.213,openIAT,2023.1.3,Win32,59.95203837,
,,,,,,l,1,0.64,,,,,,,,,0.64,1,0,15,15,5,1,stimuli/blank.png,träge,l,AN09RO,2023-08-01_22h08.10.213,openIAT,2023.1.3,Win32,59.95203837,
,,,,,,l,1,1.22,,,,,,,,,1.22,1,0,16,16,1,1,stimuli/blank.png,brutal,l,AN09RO,2023-08-01_22h08.10.213,openIAT,2023.1.3,Win32,59.95203837,
,,,,,,l,1,1.093,,,,,,,,,1.093,1,0,17,17,17,1,stimuli/blank.png,eitel,l,AN09RO,2023-08-01_22h08.10.213,openIAT,2023.1.3,Win32,59.95203837,
,,,,,,a,1,0.718,,,,,,,,,0.718,1,0,18,18,8,1,stimuli/blank.png,human,a,AN09RO,2023-08-01_22h08.10.213,openIAT,2023.1.3,Win32,59.95203837,
,,,,,,a,1,0.747,,,,,,,,,0.747,1,0,19,19,2,1,stimuli/blank.png,fröhlich,a,AN09RO,2023-08-01_22h08.10.213,openIAT,2023.1.3,Win32,59.95203837,
,,,,,,a,1,0.719,,,,,,,,,0.719,1,0,0,0,19,1,stimuli/blank.png,selbst,a,AN09RO,2023-08-01_22h08.10.213,openIAT,2023.1.3,Win32,59.95203837,
,,,,,,l,1,1.073,,,,,,,,,1.073,1,0,1,1,16,1,stimuli/blank.png,euch,l,AN09RO,2023-08-01_22h08.10.213,openIAT,2023.1.3,Win32,59.95203837,
,,,,,,l,1,0.776,,,,,,,,,0.776,1,0,2,2,2,1,stimuli/blank.png,ihr,l,AN09RO,2023-08-01_22h08.10.213,openIAT,2023.1.3,Win32,59.95203837,
,,,,,,l,1,0.718,,,,,,,,,0.718,1,0,3,3,8,1,stimuli/blank.png,eure,l,AN09RO,2023-08-01_22h08.10.213,openIAT,2023.1.3,Win32,59.95203837,
,,,,,,l,1,1.013,,,,,,,,,1.013,1,0,4,4,4,1,stimuli/blank.png,jene,l,AN09RO,2023-08-01_22h08.10.213,openIAT,2023.1.3,Win32,59.95203837,
,,,,,,a,1,0.818,,,,,,,,,0.818,1,0,5,5,17,1,stimuli/blank.png,eigene,a,AN09RO,2023-08-01_22h08.10.213,openIAT,2023.1.3,Win32,59.95203837,
,,,,,,a,1,0.683,,,,,,,,,0.683,1,0,6,6,15,1,stimuli/blank.png,meine,a,AN09RO,2023-08-01_22h08.10.213,openIAT,2023.1.3,Win32,59.95203837,
,,,,,,a,1,0.666,,,,,,,,,0.666,1,0,7,7,11,1,stimuli/blank.png,ich,a,AN09RO,2023-08-01_22h08.10.213,openIAT,2023.1.3,Win32,59.95203837,
,,,,,,l,1,0.834,,,,,,,,,0.834,1,0,8,8,6,1,stimuli/blank.png,euch,l,AN09RO,2023-08-01_22h08.10.213,openIAT,2023.1.3,Win32,59.95203837,
,,,,,,a,1,1.188,,,,,,,,,1.188,1,0,9,9,13,1,stimuli/blank.png,mir,a,AN09RO,2023-08-01_22h08.10.213,openIAT,2023.1.3,Win32,59.95203837,
,,,,,,l,1,1.088,,,,,,,,,1.088,1,0,10,10,18,1,stimuli/blank.png,eure,l,AN09RO,2023-08-01_22h08.10.213,openIAT,2023.1.3,Win32,59.95203837,
,,,,,,a,1,0.583,,,,,,,,,0.583,1,0,11,11,1,1,stimuli/blank.png,ich,a,AN09RO,2023-08-01_22h08.10.213,openIAT,2023.1.3,Win32,59.95203837,
,,,,,,l,1,0.595,,,,,,,,,0.595,1,0,12,12,0,1,stimuli/blank.png,andere,l,AN09RO,2023-08-01_22h08.10.213,openIAT,2023.1.3,Win32,59.95203837,
,,,,,,a,1,1.385,,,,,,,,,1.385,1,0,13,13,7,1,stimuli/blank.png,eigene,a,AN09RO,2023-08-01_22h08.10.213,openIAT,2023.1.3,Win32,59.95203837,
,,,,,,l,1,0.778,,,,,,,,,0.778,1,0,14,14,14,1,stimuli/blank.png,jene,l,AN09RO,2023-08-01_22h08.10.213,openIAT,2023.1.3,Win32,59.95203837,
,,,,,,l,1,0.656,,,,,,,,,0.656,1,0,15,15,10,1,stimuli/blank.png,andere,l,AN09RO,2023-08-01_22h08.10.213,openIAT,2023.1.3,Win32,59.95203837,
,,,,,,a,1,0.713,,,,,,,,,0.713,1,0,16,16,5,1,stimuli/blank.png,meine,a,AN09RO,2023-08-01_22h08.10.213,openIAT,2023.1.3,Win32,59.95203837,
,,,,,,a,1,1.281,,,,,,,,,1.281,1,0,17,17,9,1,stimuli/blank.png,selbst,a,AN09RO,2023-08-01_22h08.10.213,openIAT,2023.1.3,Win32,59.95203837,
,,,,,,a,1,0.771,,,,,,,,,0.771,1,0,18,18,3,1,stimuli/blank.png,mir,a,AN09RO,2023-08-01_22h08.10.213,openIAT,2023.1.3,Win32,59.95203837,
,,,,,,l,1,1.174,,,,,,,,,1.174,1,0,19,19,12,1,stimuli/blank.png,ihr,l,AN09RO,2023-08-01_22h08.10.213,openIAT,2023.1.3,Win32,59.95203837,
,,,,,,a,1,1.236,,,,,,,,,1.236,1,0,0,0,10,1,stimuli/blank.png,aktiv,a,AN09RO,2023-08-01_22h08.10.213,openIAT,2023.1.3,Win32,59.95203837,
,,,,,,l,1,0.904,,,,,,,,,0.904,1,0,1,1,11,1,stimuli/blank.png,brutal,l,AN09RO,2023-08-01_22h08.10.213,openIAT,2023.1.3,Win32,59.95203837,
,,,,,,l,1,1.234,,,,,,,,,1.234,1,0,2,2,2,1,stimuli/blank.png,ihr,l,AN09RO,2023-08-01_22h08.10.213,openIAT,2023.1.3,Win32,59.95203837,
,,,,,,l,1,0.971,,,,,,,,,0.971,1,0,3,3,19,1,stimuli/blank.png,lustlos,l,AN09RO,2023-08-01_22h08.10.213,openIAT,2023.1.3,Win32,59.95203837,
,,,,,,l,1,1.488,,,,,,,,,1.488,1,0,4,4,8,1,stimuli/blank.png,eure,l,AN09RO,2023-08-01_22h08.10.213,openIAT,2023.1.3,Win32,59.95203837,
,,,,,,l,1,0.942,,,,,,,,,0.942,1,0,5,5,6,1,stimuli/blank.png,euch,l,AN09RO,2023-08-01_22h08.10.213,openIAT,2023.1.3,Win32,59.95203837,
,,,,,,a,1,0.739,,,,,,,,,0.739,1,0,6,6,16,1,stimuli/blank.png,begabt,a,AN09RO,2023-08-01_22h08.10.213,openIAT,2023.1.3,Win32,59.95203837,
,,,,,,a,1,0.89,,,,,,,,,0.89,1,0,7,7,7,1,stimuli/blank.png,eigene,a,AN09RO,2023-08-01_22h08.10.213,openIAT,2023.1.3,Win32,59.95203837,
,,,,,,l,1,0.754,,,,,,,,,0.754,1,0,8,8,13,1,stimuli/blank.png,verlogen,l,AN09RO,2023-08-01_22h08.10.213,openIAT,2023.1.3,Win32,59.95203837,
,,,,,,a,1,0.911,,,,,,,,,0.911,1,0,9,9,18,1,stimuli/blank.png,human,a,AN09RO,2023-08-01_22h08.10.213,openIAT,2023.1.3,Win32,59.95203837,
,,,,,,l,1,0.813,,,,,,,,,0.813,1,0,10,10,17,1,stimuli/blank.png,eitel,l,AN09RO,2023-08-01_22h08.10.213,openIAT,2023.1.3,Win32,59.95203837,
,,,,,,a,1,1.122,,,,,,,,,1.122,1,0,11,11,5,1,stimuli/blank.png,meine,a,AN09RO,2023-08-01_22h08.10.213,openIAT,2023.1.3,Win32,59.95203837,
,,,,,,a,1,0.783,,,,,,,,,0.783,1,0,12,12,14,1,stimuli/blank.png,gerecht,a,AN09RO,2023-08-01_22h08.10.213,openIAT,2023.1.3,Win32,59.95203837,
,,,,,,l,1,0.925,,,,,,,,,0.925,1,0,13,13,4,1,stimuli/blank.png,jene,l,AN09RO,2023-08-01_22h08.10.213,openIAT,2023.1.3,Win32,59.95203837,
,,,,,,l,1,1.043,,,,,,,,,1.043,1,0,14,14,0,1,stimuli/blank.png,andere,l,AN09RO,2023-08-01_22h08.10.213,openIAT,2023.1.3,Win32,59.95203837,
,,,,,,a,1,0.829,,,,,,,,,0.829,1,0,15,15,3,1,stimuli/blank.png,mir,a,AN09RO,2023-08-01_22h08.10.213,openIAT,2023.1.3,Win32,59.95203837,
,,,,,,a,1,0.687,,,,,,,,,0.687,1,0,16,16,1,1,stimuli/blank.png,ich,a,AN09RO,2023-08-01_22h08.10.213,openIAT,2023.1.3,Win32,59.95203837,
,,,,,,a,1,0.912,,,,,,,,,0.912,1,0,17,17,9,1,stimuli/blank.png,selbst,a,AN09RO,2023-08-01_22h08.10.213,openIAT,2023.1.3,Win32,59.95203837,
,,,,,,l,1,0.613,,,,,,,,,0.613,1,0,18,18,15,1,stimuli/blank.png,träge,l,AN09RO,2023-08-01_22h08.10.213,openIAT,2023.1.3,Win32,59.95203837,
,,,,,,a,1,0.721,,,,,,,,,0.721,1,0,19,19,12,1,stimuli/blank.png,fröhlich,a,AN09RO,2023-08-01_22h08.10.213,openIAT,2023.1.3,Win32,59.95203837,
,,,,,,l,1,0.866,,,,,,,,,0.866,1,0,0,0,0,1,stimuli/blank.png,andere,l,AN09RO,2023-08-01_22h08.10.213,openIAT,2023.1.3,Win32,59.95203837,
,,,,,,a,1,0.906,,,,,,,,,0.906,1,0,1,1,16,1,stimuli/blank.png,begabt,a,AN09RO,2023-08-01_22h08.10.213,openIAT,2023.1.3,Win32,59.95203837,
,,,,,,l,1,0.911,,,,,,,,,0.911,1,0,2,2,4,1,stimuli/blank.png,jene,l,AN09RO,2023-08-01_22h08.10.213,openIAT,2023.1.3,Win32,59.95203837,
,,,,,,a,1,0.664,,,,,,,,,0.664,1,0,3,3,30,1,stimuli/blank.png,aktiv,a,AN09RO,2023-08-01_22h08.10.213,openIAT,2023.1.3,Win32,59.95203837,
,,,,,,l,1,0.617,,,,,,,,,0.617,1,0,4,4,17,1,stimuli/blank.png,eitel,l,AN09RO,2023-08-01_22h08.10.213,openIAT,2023.1.3,Win32,59.95203837,
,,,,,,a,1,0.717,,,,,,,,,0.717,1,0,5,5,21,1,stimuli/blank.png,ich,a,AN09RO,2023-08-01_22h08.10.213,openIAT,2023.1.3,Win32,59.95203837,
,,,,,,l,1,0.891,,,,,,,,,0.891,1,0,6,6,6,1,stimuli/blank.png,euch,l,AN09RO,2023-08-01_22h08.10.213,openIAT,2023.1.3,Win32,59.95203837,
,,,,,,l,1,0.667,,,,,,,,,0.667,1,0,7,7,15,1,stimuli/blank.png,träge,l,AN09RO,2023-08-01_22h08.10.213,openIAT,2023.1.3,Win32,59.95203837,
,,,,,,l,1,0.66,,,,,,,,,0.66,1,0,8,8,37,1,stimuli/blank.png,eitel,l,AN09RO,2023-08-01_22h08.10.213,openIAT,2023.1.3,Win32,59.95203837,
,,,,,,l,1,0.989,,,,,,,,,0.989,1,0,9,9,39,1,stimuli/blank.png,lustlos,l,AN09RO,2023-08-01_22h08.10.213,openIAT,2023.1.3,Win32,59.95203837,
,,,,,,l,1,0.778,,,,,,,,,0.778,1,0,10,10,13,1,stimuli/blank.png,verlogen,l,AN09RO,2023-08-01_22h08.10.213,openIAT,2023.1.3,Win32,59.95203837,
,,,,,,a,1,0.788,,,,,,,,,0.788,1,0,11,11,9,1,stimuli/blank.png,selbst,a,AN09RO,2023-08-01_22h08.10.213,openIAT,2023.1.3,Win32,59.95203837,
,,,,,,a,1,0.514,,,,,,,,,0.514,1,0,12,12,29,1,stimuli/blank.png,selbst,a,AN09RO,2023-08-01_22h08.10.213,openIAT,2023.1.3,Win32,59.95203837,
,,,,,,l,1,0.633,,,,,,,,,0.633,1,0,13,13,33,1,stimuli/blank.png,verlogen,l,AN09RO,2023-08-01_22h08.10.213,openIAT,2023.1.3,Win32,59.95203837,
,,,,,,l,1,1.243,,,,,,,,,1.243,1,0,14,14,31,1,stimuli/blank.png,brutal,l,AN09RO,2023-08-01_22h08.10.213,openIAT,2023.1.3,Win32,59.95203837,
,,,,,,a,1,1.022,,,,,,,,,1.022,1,0,15,15,10,1,stimuli/blank.png,aktiv,a,AN09RO,2023-08-01_22h08.10.213,openIAT,2023.1.3,Win32,59.95203837,
,,,,,,l,1,0.839,,,,,,,,,0.839,1,0,16,16,11,1,stimuli/blank.png,brutal,l,AN09RO,2023-08-01_22h08.10.213,openIAT,2023.1.3,Win32,59.95203837,
,,,,,,l,1,0.953,,,,,,,,,0.953,1,0,17,17,26,1,stimuli/blank.png,euch,l,AN09RO,2023-08-01_22h08.10.213,openIAT,2023.1.3,Win32,59.95203837,
,,,,,,a,1,0.767,,,,,,,,,0.767,1,0,18,18,38,1,stimuli/blank.png,human,a,AN09RO,2023-08-01_22h08.10.213,openIAT,2023.1.3,Win32,59.95203837,
,,,,,,l,1,0.866,,,,,,,,,0.866,1,0,19,19,19,1,stimuli/blank.png,lustlos,l,AN09RO,2023-08-01_22h08.10.213,openIAT,2023.1.3,Win32,59.95203837,
,,,,,,a,1,0.771,,,,,,,,,0.771,1,0,20,20,23,1,stimuli/blank.png,mir,a,AN09RO,2023-08-01_22h08.10.213,openIAT,2023.1.3,Win32,59.95203837,
,,,,,,a,1,0.679,,,,,,,,,0.679,1,0,21,21,1,1,stimuli/blank.png,ich,a,AN09RO,2023-08-01_22h08.10.213,openIAT,2023.1.3,Win32,59.95203837,
,,,,,,l,1,0.617,,,,,,,,,0.617,1,0,22,22,24,1,stimuli/blank.png,jene,l,AN09RO,2023-08-01_22h08.10.213,openIAT,2023.1.3,Win32,59.95203837,
,,,,,,l,1,0.947,,,,,,,,,0.947,1,0,23,23,35,1,stimuli/blank.png,träge,l,AN09RO,2023-08-01_22h08.10.213,openIAT,2023.1.3,Win32,59.95203837,
,,,,,,a,1,0.793,,,,,,,,,0.793,1,0,24,24,27,1,stimuli/blank.png,eigene,a,AN09RO,2023-08-01_22h08.10.213,openIAT,2023.1.3,Win32,59.95203837,
,,,,,,l,1,1.26,,,,,,,,,1.26,1,0,25,25,8,1,stimuli/blank.png,eure,l,AN09RO,2023-08-01_22h08.10.213,openIAT,2023.1.3,Win32,59.95203837,
,,,,,,a,1,1.357,,,,,,,,,1.357,1,0,26,26,7,1,stimuli/blank.png,eigene,a,AN09RO,2023-08-01_22h08.10.213,openIAT,2023.1.3,Win32,59.95203837,
,,,,,,a,1,0.761,,,,,,,,,0.761,1,0,27,27,12,1,stimuli/blank.png,fröhlich,a,AN09RO,2023-08-01_22h08.10.213,openIAT,2023.1.3,Win32,59.95203837,
,,,,,,l,1,1.054,,,,,,,,,1.054,1,0,28,28,22,1,stimuli/blank.png,ihr,l,AN09RO,2023-08-01_22h08.10.213,openIAT,2023.1.3,Win32,59.95203837,
,,,,,,a,1,0.878,,,,,,,,,0.878,1,0,29,29,3,1,stimuli/blank.png,mir,a,AN09RO,2023-08-01_22h08.10.213,openIAT,2023.1.3,Win32,59.95203837,
,,,,,,a,1,1.001,,,,,,,,,1.001,1,0,30,30,32,1,stimuli/blank.png,fröhlich,a,AN09RO,2023-08-01_22h08.10.213,openIAT,2023.1.3,Win32,59.95203837,
,,,,,,l,1,0.763,,,,,,,,,0.763,1,0,31,31,2,1,stimuli/blank.png,ihr,l,AN09RO,2023-08-01_22h08.10.213,openIAT,2023.1.3,Win32,59.95203837,
,,,,,,a,1,0.752,,,,,,,,,0.752,1,0,32,32,25,1,stimuli/blank.png,meine,a,AN09RO,2023-08-01_22h08.10.213,openIAT,2023.1.3,Win32,59.95203837,
,,,,,,l,1,0.659,,,,,,,,,0.659,1,0,33,33,20,1,stimuli/blank.png,andere,l,AN09RO,2023-08-01_22h08.10.213,openIAT,2023.1.3,Win32,59.95203837,
,,,,,,a,1,0.951,,,,,,,,,0.951,1,0,34,34,14,1,stimuli/blank.png,gerecht,a,AN09RO,2023-08-01_22h08.10.213,openIAT,2023.1.3,Win32,59.95203837,
,,,,,,a,1,0.66,,,,,,,,,0.66,1,0,35,35,36,1,stimuli/blank.png,begabt,a,AN09RO,2023-08-01_22h08.10.213,openIAT,2023.1.3,Win32,59.95203837,
,,,,,,l,1,0.741,,,,,,,,,0.741,1,0,36,36,28,1,stimuli/blank.png,eure,l,AN09RO,2023-08-01_22h08.10.213,openIAT,2023.1.3,Win32,59.95203837,
,,,,,,a,1,0.835,,,,,,,,,0.835,1,0,37,37,18,1,stimuli/blank.png,human,a,AN09RO,2023-08-01_22h08.10.213,openIAT,2023.1.3,Win32,59.95203837,
,,,,,,a,1,1.245,,,,,,,,,1.245,1,0,38,38,5,1,stimuli/blank.png,meine,a,AN09RO,2023-08-01_22h08.10.213,openIAT,2023.1.3,Win32,59.95203837,
,,,,,,a,1,0.678,,,,,,,,,0.678,1,0,39,39,34,1,stimuli/blank.png,gerecht,a,AN09RO,2023-08-01_22h08.10.213,openIAT,2023.1.3,Win32,59.95203837,
,,,,,,a,1,1.808,,,,,,,,,1.808,1,0,0,0,10,1,stimuli/blank.png,andere,a,AN09RO,2023-08-01_22h08.10.213,openIAT,2023.1.3,Win32,59.95203837,
,,,,,,l,1,0.861,,,,,,,,,0.861,1,0,1,1,13,1,stimuli/blank.png,mir,l,AN09RO,2023-08-01_22h08.10.213,openIAT,2023.1.3,Win32,59.95203837,
,,,,,,a,1,1.455,,,,,,,,,1.455,1,0,2,2,2,1,stimuli/blank.png,ihr,a,AN09RO,2023-08-01_22h08.10.213,openIAT,2023.1.3,Win32,59.95203837,
,,,,,,a,1,1.088,,,,,,,,,1.088,1,0,3,3,16,1,stimuli/blank.png,euch,a,AN09RO,2023-08-01_22h08.10.213,openIAT,2023.1.3,Win32,59.95203837,
,,,,,,l,1,1.969,,,,,,,,,1.969,1,0,4,4,3,1,stimuli/blank.png,mir,l,AN09RO,2023-08-01_22h08.10.213,openIAT,2023.1.3,Win32,59.95203837,
,,,,,,a,1,0.779,,,,,,,,,0.779,1,0,5,5,14,1,stimuli/blank.png,jene,a,AN09RO,2023-08-01_22h08.10.213,openIAT,2023.1.3,Win32,59.95203837,
,,,,,,l,1,1.16,,,,,,,,,1.16,1,0,6,6,7,1,stimuli/blank.png,eigene,l,AN09RO,2023-08-01_22h08.10.213,openIAT,2023.1.3,Win32,59.95203837,
,,,,,,a,1,1.036,,,,,,,,,1.036,1,0,7,7,8,1,stimuli/blank.png,eure,a,AN09RO,2023-08-01_22h08.10.213,openIAT,2023.1.3,Win32,59.95203837,
,,,,,,a,1,0.792,,,,,,,,,0.792,1,0,8,8,18,1,stimuli/blank.png,eure,a,AN09RO,2023-08-01_22h08.10.213,openIAT,2023.1.3,Win32,59.95203837,
,,,,,,a,1,1.123,,,,,,,,,1.123,1,0,9,9,12,1,stimuli/blank.png,ihr,a,AN09RO,2023-08-01_22h08.10.213,openIAT,2023.1.3,Win32,59.95203837,
,,,,,,a,1,1.25,,,,,,,,,1.25,1,0,10,10,0,1,stimuli/blank.png,andere,a,AN09RO,2023-08-01_22h08.10.213,openIAT,2023.1.3,Win32,59.95203837,
,,,,,,l,1,0.667,,,,,,,,,0.667,1,0,11,11,11,1,stimuli/blank.png,ich,l,AN09RO,2023-08-01_22h08.10.213,openIAT,2023.1.3,Win32,59.95203837,
,,,,,,l,1,0.738,,,,,,,,,0.738,1,0,12,12,5,1,stimuli/blank.png,meine,l,AN09RO,2023-08-01_22h08.10.213,openIAT,2023.1.3,Win32,59.95203837,
,,,,,,l,1,1.458,,,,,,,,,1.458,1,0,13,13,19,1,stimuli/blank.png,selbst,l,AN09RO,2023-08-01_22h08.10.213,openIAT,2023.1.3,Win32,59.95203837,
,,,,,,a,1,1.618,,,,,,,,,1.618,1,0,14,14,6,1,stimuli/blank.png,euch,a,AN09RO,2023-08-01_22h08.10.213,openIAT,2023.1.3,Win32,59.95203837,
,,,,,,l,1,1.028,,,,,,,,,1.028,1,0,15,15,15,1,stimuli/blank.png,meine,l,AN09RO,2023-08-01_22h08.10.213,openIAT,2023.1.3,Win32,59.95203837,
,,,,,,l,1,1.614,,,,,,,,,1.614,1,0,16,16,17,1,stimuli/blank.png,eigene,l,AN09RO,2023-08-01_22h08.10.213,openIAT,2023.1.3,Win32,59.95203837,
,,,,,,l,1,0.689,,,,,,,,,0.689,1,0,17,17,1,1,stimuli/blank.png,ich,l,AN09RO,2023-08-01_22h08.10.213,openIAT,2023.1.3,Win32,59.95203837,
,,,,,,a,1,0.873,,,,,,,,,0.873,1,0,18,18,4,1,stimuli/blank.png,jene,a,AN09RO,2023-08-01_22h08.10.213,openIAT,2023.1.3,Win32,59.95203837,
,,,,,,l,1,1.178,,,,,,,,,1.178,1,0,19,19,9,1,stimuli/blank.png,selbst,l,AN09RO,2023-08-01_22h08.10.213,openIAT,2023.1.3,Win32,59.95203837,
,,,,,,a,1,2.865,,,,,,,,,2.865,1,0,0,0,12,1,stimuli/blank.png,fröhlich,a,AN09RO,2023-08-01_22h08.10.213,openIAT,2023.1.3,Win32,59.95203837,
,,,,,,l,0,3.827,,,,,,,,,3.827,0,0,1,1,8,1,stimuli/blank.png,eure,a,AN09RO,2023-08-01_22h08.10.213,openIAT,2023.1.3,Win32,59.95203837,
,,,,,,l,1,4.097,,,,,,,,,4.097,1,0,2,2,3,1,stimuli/blank.png,mir,l,AN09RO,2023-08-01_22h08.10.213,openIAT,2023.1.3,Win32,59.95203837,
,,,,,,l,1,2.503,,,,,,,,,2.503,1,0,3,3,11,1,stimuli/blank.png,brutal,l,AN09RO,2023-08-01_22h08.10.213,openIAT,2023.1.3,Win32,59.95203837,
,,,,,,a,1,1.604,,,,,,,,,1.604,1,0,4,4,2,1,stimuli/blank.png,ihr,a,AN09RO,2023-08-01_22h08.10.213,openIAT,2023.1.3,Win32,59.95203837,
,,,,,,l,1,2.679,,,,,,,,,2.679,1,0,5,5,9,1,stimuli/blank.png,selbst,l,AN09RO,2023-08-01_22h08.10.213,openIAT,2023.1.3,Win32,59.95203837,
,,,,,,l,1,1.326,,,,,,,,,1.326,1,0,6,6,1,1,stimuli/blank.png,ich,l,AN09RO,2023-08-01_22h08.10.213,openIAT,2023.1.3,Win32,59.95203837,
,,,,,,l,0,1.093,,,,,,,,,1.093,0,0,7,7,18,1,stimuli/blank.png,human,a,AN09RO,2023-08-01_22h08.10.213,openIAT,2023.1.3,Win32,59.95203837,
,,,,,,a,1,4.021,,,,,,,,,4.021,1,0,8,8,0,1,stimuli/blank.png,andere,a,AN09RO,2023-08-01_22h08.10.213,openIAT,2023.1.3,Win32,59.95203837,
,,,,,,l,1,1.54,,,,,,,,,1.54,1,0,9,9,7,1,stimuli/blank.png,eigene,l,AN09RO,2023-08-01_22h08.10.213,openIAT,2023.1.3,Win32,59.95203837,
,,,,,,l,1,1.889,,,,,,,,,1.889,1,0,10,10,17,1,stimuli/blank.png,eitel,l,AN09RO,2023-08-01_22h08.10.213,openIAT,2023.1.3,Win32,59.95203837,
,,,,,,a,1,2.337,,,,,,,,,2.337,1,0,11,11,14,1,stimuli/blank.png,gerecht,a,AN09RO,2023-08-01_22h08.10.213,openIAT,2023.1.3,Win32,59.95203837,
,,,,,,l,1,1.374,,,,,,,,,1.374,1,0,12,12,15,1,stimuli/blank.png,träge,l,AN09RO,2023-08-01_22h08.10.213,openIAT,2023.1.3,Win32,59.95203837,
,,,,,,l,1,1.169,,,,,,,,,1.169,1,0,13,13,13,1,stimuli/blank.png,verlogen,l,AN09RO,2023-08-01_22h08.10.213,openIAT,2023.1.3,Win32,59.95203837,
,,,,,,a,1,1.637,,,,,,,,,1.637,1,0,14,14,6,1,stimuli/blank.png,euch,a,AN09RO,2023-08-01_22h08.10.213,openIAT,2023.1.3,Win32,59.95203837,
,,,,,,l,1,1.824,,,,,,,,,1.824,1,0,15,15,5,1,stimuli/blank.png,meine,l,AN09RO,2023-08-01_22h08.10.213,openIAT,2023.1.3,Win32,59.95203837,
,,,,,,a,1,1.777,,,,,,,,,1.777,1,0,16,16,16,1,stimuli/blank.png,begabt,a,AN09RO,2023-08-01_22h08.10.213,openIAT,2023.1.3,Win32,59.95203837,
,,,,,,a,1,1.534,,,,,,,,,1.534,1,0,17,17,4,1,stimuli/blank.png,jene,a,AN09RO,2023-08-01_22h08.10.213,openIAT,2023.1.3,Win32,59.95203837,
,,,,,,l,1,0.994,,,,,,,,,0.994,1,0,18,18,19,1,stimuli/blank.png,lustlos,l,AN09RO,2023-08-01_22h08.10.213,openIAT,2023.1.3,Win32,59.95203837,
,,,,,,a,1,1.582,,,,,,,,,1.582,1,0,19,19,10,1,stimuli/blank.png,aktiv,a,AN09RO,2023-08-01_22h08.10.213,openIAT,2023.1.3,Win32,59.95203837,
,,,,,,l,1,2.318,,,,,,,,,2.318,1,0,0,0,27,1,stimuli/blank.png,eigene,l,AN09RO,2023-08-01_22h08.10.213,openIAT,2023.1.3,Win32,59.95203837,
,,,,,,a,1,2.469,,,,,,,,,2.469,1,0,1,1,38,1,stimuli/blank.png,human,a,AN09RO,2023-08-01_22h08.10.213,openIAT,2023.1.3,Win32,59.95203837,
,,,,,,l,1,2.738,,,,,,,,,2.738,1,0,2,2,33,1,stimuli/blank.png,verlogen,l,AN09RO,2023-08-01_22h08.10.213,openIAT,2023.1.3,Win32,59.95203837,
,,,,,,l,1,3.327,,,,,,,,,3.327,1,0,3,3,7,1,stimuli/blank.png,eigene,l,AN09RO,2023-08-01_22h08.10.213,openIAT,2023.1.3,Win32,59.95203837,
,,,,,,a,1,1.226,,,,,,,,,1.226,1,0,4,4,22,1,stimuli/blank.png,ihr,a,AN09RO,2023-08-01_22h08.10.213,openIAT,2023.1.3,Win32,59.95203837,
,,,,,,l,1,1.285,,,,,,,,,1.285,1,0,5,5,31,1,stimuli/blank.png,brutal,l,AN09RO,2023-08-01_22h08.10.213,openIAT,2023.1.3,Win32,59.95203837,
,,,,,,l,1,2.924,,,,,,,,,2.924,1,0,6,6,25,1,stimuli/blank.png,meine,l,AN09RO,2023-08-01_22h08.10.213,openIAT,2023.1.3,Win32,59.95203837,
,,,,,,a,1,1.345,,,,,,,,,1.345,1,0,7,7,0,1,stimuli/blank.png,andere,a,AN09RO,2023-08-01_22h08.10.213,openIAT,2023.1.3,Win32,59.95203837,
,,,,,,a,1,0.584,,,,,,,,,0.584,1,0,8,8,32,1,stimuli/blank.png,fröhlich,a,AN09RO,2023-08-01_22h08.10.213,openIAT,2023.1.3,Win32,59.95203837,
,,,,,,a,1,2.852,,,,,,,,,2.852,1,0,9,9,28,1,stimuli/blank.png,eure,a,AN09RO,2023-08-01_22h08.10.213,openIAT,2023.1.3,Win32,59.95203837,
,,,,,,l,1,0.906,,,,,,,,,0.906,1,0,10,10,35,1,stimuli/blank.png,träge,l,AN09RO,2023-08-01_22h08.10.213,openIAT,2023.1.3,Win32,59.95203837,
,,,,,,a,1,3.249,,,,,,,,,3.249,1,0,11,11,36,1,stimuli/blank.png,begabt,a,AN09RO,2023-08-01_22h08.10.213,openIAT,2023.1.3,Win32,59.95203837,
,,,,,,a,1,1.255,,,,,,,,,1.255,1,0,12,12,20,1,stimuli/blank.png,andere,a,AN09RO,2023-08-01_22h08.10.213,openIAT,2023.1.3,Win32,59.95203837,
,,,,,,l,1,0.809,,,,,,,,,0.809,1,0,13,13,21,1,stimuli/blank.png,ich,l,AN09RO,2023-08-01_22h08.10.213,openIAT,2023.1.3,Win32,59.95203837,
,,,,,,l,1,0.86,,,,,,,,,0.86,1,0,14,14,23,1,stimuli/blank.png,mir,l,AN09RO,2023-08-01_22h08.10.213,openIAT,2023.1.3,Win32,59.95203837,
,,,,,,a,1,0.717,,,,,,,,,0.717,1,0,15,15,8,1,stimuli/blank.png,eure,a,AN09RO,2023-08-01_22h08.10.213,openIAT,2023.1.3,Win32,59.95203837,
,,,,,,a,1,0.964,,,,,,,,,0.964,1,0,16,16,24,1,stimuli/blank.png,jene,a,AN09RO,2023-08-01_22h08.10.213,openIAT,2023.1.3,Win32,59.95203837,
,,,,,,l,1,1.32,,,,,,,,,1.32,1,0,17,17,17,1,stimuli/blank.png,eitel,l,AN09RO,2023-08-01_22h08.10.213,openIAT,2023.1.3,Win32,59.95203837,
,,,,,,a,1,0.88,,,,,,,,,0.88,1,0,18,18,4,1,stimuli/blank.png,jene,a,AN09RO,2023-08-01_22h08.10.213,openIAT,2023.1.3,Win32,59.95203837,
,,,,,,l,1,1.64,,,,,,,,,1.64,1,0,19,19,3,1,stimuli/blank.png,mir,l,AN09RO,2023-08-01_22h08.10.213,openIAT,2023.1.3,Win32,59.95203837,
,,,,,,l,1,0.729,,,,,,,,,0.729,1,0,20,20,11,1,stimuli/blank.png,brutal,l,AN09RO,2023-08-01_22h08.10.213,openIAT,2023.1.3,Win32,59.95203837,
,,,,,,a,1,1.056,,,,,,,,,1.056,1,0,21,21,30,1,stimuli/blank.png,aktiv,a,AN09RO,2023-08-01_22h08.10.213,openIAT,2023.1.3,Win32,59.95203837,
,,,,,,a,1,1.873,,,,,,,,,1.873,1,0,22,22,16,1,stimuli/blank.png,begabt,a,AN09RO,2023-08-01_22h08.10.213,openIAT,2023.1.3,Win32,59.95203837,
,,,,,,a,1,1.001,,,,,,,,,1.001,1,0,23,23,12,1,stimuli/blank.png,fröhlich,a,AN09RO,2023-08-01_22h08.10.213,openIAT,2023.1.3,Win32,59.95203837,
,,,,,,l,1,1.235,,,,,,,,,1.235,1,0,24,24,9,1,stimuli/blank.png,selbst,l,AN09RO,2023-08-01_22h08.10.213,openIAT,2023.1.3,Win32,59.95203837,
,,,,,,l,1,0.829,,,,,,,,,0.829,1,0,25,25,29,1,stimuli/blank.png,selbst,l,AN09RO,2023-08-01_22h08.10.213,openIAT,2023.1.3,Win32,59.95203837,
,,,,,,a,1,1.383,,,,,,,,,1.383,1,0,26,26,10,1,stimuli/blank.png,aktiv,a,AN09RO,2023-08-01_22h08.10.213,openIAT,2023.1.3,Win32,59.95203837,
,,,,,,l,1,1.033,,,,,,,,,1.033,1,0,27,27,39,1,stimuli/blank.png,lustlos,l,AN09RO,2023-08-01_22h08.10.213,openIAT,2023.1.3,Win32,59.95203837,
,,,,,,a,1,1.764,,,,,,,,,1.764,1,0,28,28,18,1,stimuli/blank.png,human,a,AN09RO,2023-08-01_22h08.10.213,openIAT,2023.1.3,Win32,59.95203837,
,,,,,,a,1,1.055,,,,,,,,,1.055,1,0,29,29,34,1,stimuli/blank.png,gerecht,a,AN09RO,2023-08-01_22h08.10.213,openIAT,2023.1.3,Win32,59.95203837,
,,,,,,l,1,1.64,,,,,,,,,1.64,1,0,30,30,19,1,stimuli/blank.png,lustlos,l,AN09RO,2023-08-01_22h08.10.213,openIAT,2023.1.3,Win32,59.95203837,
,,,,,,a,1,1.865,,,,,,,,,1.865,1,0,31,31,2,1,stimuli/blank.png,ihr,a,AN09RO,2023-08-01_22h08.10.213,openIAT,2023.1.3,Win32,59.95203837,
,,,,,,l,1,0.802,,,,,,,,,0.802,1,0,32,32,1,1,stimuli/blank.png,ich,l,AN09RO,2023-08-01_22h08.10.213,openIAT,2023.1.3,Win32,59.95203837,
,,,,,,a,1,1.198,,,,,,,,,1.198,1,0,33,33,14,1,stimuli/blank.png,gerecht,a,AN09RO,2023-08-01_22h08.10.213,openIAT,2023.1.3,Win32,59.95203837,
,,,,,,l,1,0.738,,,,,,,,,0.738,1,0,34,34,13,1,stimuli/blank.png,verlogen,l,AN09RO,2023-08-01_22h08.10.213,openIAT,2023.1.3,Win32,59.95203837,
,,,,,,l,1,1.168,,,,,,,,,1.168,1,0,35,35,15,1,stimuli/blank.png,träge,l,AN09RO,2023-08-01_22h08.10.213,openIAT,2023.1.3,Win32,59.95203837,
,,,,,,a,1,0.866,,,,,,,,,0.866,1,0,36,36,26,1,stimuli/blank.png,euch,a,AN09RO,2023-08-01_22h08.10.213,openIAT,2023.1.3,Win32,59.95203837,
,,,,,,l,1,1.452,,,,,,,,,1.452,1,0,37,37,37,1,stimuli/blank.png,eitel,l,AN09RO,2023-08-01_22h08.10.213,openIAT,2023.1.3,Win32,59.95203837,
,,,,,,a,1,1.172,,,,,,,,,1.172,1,0,38,38,6,1,stimuli/blank.png,euch,a,AN09RO,2023-08-01_22h08.10.213,openIAT,2023.1.3,Win32,59.95203837,
,,,,,,l,1,0.656,,,,,,,,,0.656,1,0,39,39,5,1,stimuli/blank.png,meine,l,AN09RO,2023-08-01_22h08.10.213,openIAT,2023.1.3,Win32,59.95203837,
,,,,,,,,,,,,,,,,,,,,,,,,,,,AN09RO,2023-08-01_22h08.10.213,openIAT,2023.1.3,Win32,59.95203837,
