instr_done_touch.x,instr_done_touch.y,instr_done_touch.leftButton,instr_done_touch.midButton,instr_done_touch.rightButton,instr_done_touch.clicked_name,key_resp.keys,key_resp.corr,key_resp.rt,key_resp.duration,touch_resp.x,touch_resp.y,touch_resp.leftButton,touch_resp.midButton,touch_resp.rightButton,touch_resp.time,touch_resp.clicked_name,rt,corr,trials.thisRepN,trials.thisTrialN,trials.thisN,trials.thisIndex,trials.ran,stimImage,stimWord,CorrAns,participant,date,expName,psychopyVersion,OS,frameRate,return_tic
0.053333333,-0.4,1,0,0,instr_done_button,a,1,0.976,,,,,,,,,0.976,1,0,0,0,4,1,stimuli/blank.png,gerecht,a,AN10JR,2023-08-15_00h46.49.946,openIAT,2023.1.3,MacIntel,62.5,
,,,,,,a,1,1.077,,,,,,,,,1.077,1,0,1,1,18,1,stimuli/blank.png,human,a,AN10JR,2023-08-15_00h46.49.946,openIAT,2023.1.3,MacIntel,62.5,
,,,,,,a,1,0.662,,,,,,,,,0.662,1,0,2,2,6,1,stimuli/blank.png,begabt,a,AN10JR,2023-08-15_00h46.49.946,openIAT,2023.1.3,MacIntel,62.5,
,,,,,,a,1,0.498,,,,,,,,,0.498,1,0,3,3,14,1,stimuli/blank.png,gerecht,a,AN10JR,2023-08-15_00h46.49.946,openIAT,2023.1.3,MacIntel,62.5,
,,,,,,a,0,0.711,,,,,,,,,0.711,0,0,4,4,7,1,stimuli/blank.png,eitel,l,AN10JR,2023-08-15_00h46.49.946,openIAT,2023.1.3,MacIntel,62.5,
,,,,,,l,1,0.434,,,,,,,,,0.434,1,0,5,5,17,1,stimuli/blank.png,eitel,l,AN10JR,2023-08-15_00h46.49.946,openIAT,2023.1.3,MacIntel,62.5,
,,,,,,l,1,0.53,,,,,,,,,0.53,1,0,6,6,11,1,stimuli/blank.png,brutal,l,AN10JR,2023-08-15_00h46.49.946,openIAT,2023.1.3,MacIntel,62.5,
,,,,,,a,1,0.602,,,,,,,,,0.602,1,0,7,7,2,1,stimuli/blank.png,fröhlich,a,AN10JR,2023-08-15_00h46.49.946,openIAT,2023.1.3,MacIntel,62.5,
,,,,,,l,1,0.496,,,,,,,,,0.496,1,0,8,8,3,1,stimuli/blank.png,verlogen,l,AN10JR,2023-08-15_00h46.49.946,openIAT,2023.1.3,MacIntel,62.5,
,,,,,,a,1,0.383,,,,,,,,,0.383,1,0,9,9,10,1,stimuli/blank.png,aktiv,a,AN10JR,2023-08-15_00h46.49.946,openIAT,2023.1.3,MacIntel,62.5,
,,,,,,l,1,0.502,,,,,,,,,0.502,1,0,10,10,9,1,stimuli/blank.png,lustlos,l,AN10JR,2023-08-15_00h46.49.946,openIAT,2023.1.3,MacIntel,62.5,
,,,,,,l,1,0.579,,,,,,,,,0.579,1,0,11,11,1,1,stimuli/blank.png,brutal,l,AN10JR,2023-08-15_00h46.49.946,openIAT,2023.1.3,MacIntel,62.5,
,,,,,,l,1,0.618,,,,,,,,,0.618,1,0,12,12,15,1,stimuli/blank.png,träge,l,AN10JR,2023-08-15_00h46.49.946,openIAT,2023.1.3,MacIntel,62.5,
,,,,,,l,1,0.496,,,,,,,,,0.496,1,0,13,13,19,1,stimuli/blank.png,lustlos,l,AN10JR,2023-08-15_00h46.49.946,openIAT,2023.1.3,MacIntel,62.5,
,,,,,,a,1,0.579,,,,,,,,,0.579,1,0,14,14,8,1,stimuli/blank.png,human,a,AN10JR,2023-08-15_00h46.49.946,openIAT,2023.1.3,MacIntel,62.5,
,,,,,,a,1,0.528,,,,,,,,,0.528,1,0,15,15,16,1,stimuli/blank.png,begabt,a,AN10JR,2023-08-15_00h46.49.946,openIAT,2023.1.3,MacIntel,62.5,
,,,,,,a,1,0.478,,,,,,,,,0.478,1,0,16,16,12,1,stimuli/blank.png,fröhlich,a,AN10JR,2023-08-15_00h46.49.946,openIAT,2023.1.3,MacIntel,62.5,
,,,,,,l,1,0.546,,,,,,,,,0.546,1,0,17,17,5,1,stimuli/blank.png,träge,l,AN10JR,2023-08-15_00h46.49.946,openIAT,2023.1.3,MacIntel,62.5,
,,,,,,a,1,0.449,,,,,,,,,0.449,1,0,18,18,0,1,stimuli/blank.png,aktiv,a,AN10JR,2023-08-15_00h46.49.946,openIAT,2023.1.3,MacIntel,62.5,
,,,,,,l,1,0.545,,,,,,,,,0.545,1,0,19,19,13,1,stimuli/blank.png,verlogen,l,AN10JR,2023-08-15_00h46.49.946,openIAT,2023.1.3,MacIntel,62.5,
,,,,,,a,1,0.761,,,,,,,,,0.761,1,0,0,0,17,1,stimuli/blank.png,eigene,a,AN10JR,2023-08-15_00h46.49.946,openIAT,2023.1.3,MacIntel,62.5,
,,,,,,a,0,0.579,,,,,,,,,0.579,0,0,1,1,6,1,stimuli/blank.png,euch,l,AN10JR,2023-08-15_00h46.49.946,openIAT,2023.1.3,MacIntel,62.5,
,,,,,,l,1,0.048,,,,,,,,,0.048,1,0,2,2,2,1,stimuli/blank.png,ihr,l,AN10JR,2023-08-15_00h46.49.946,openIAT,2023.1.3,MacIntel,62.5,
,,,,,,l,1,0.71,,,,,,,,,0.71,1,0,3,3,4,1,stimuli/blank.png,jene,l,AN10JR,2023-08-15_00h46.49.946,openIAT,2023.1.3,MacIntel,62.5,
,,,,,,a,1,0.528,,,,,,,,,0.528,1,0,4,4,11,1,stimuli/blank.png,ich,a,AN10JR,2023-08-15_00h46.49.946,openIAT,2023.1.3,MacIntel,62.5,
,,,,,,a,1,0.395,,,,,,,,,0.395,1,0,5,5,3,1,stimuli/blank.png,mir,a,AN10JR,2023-08-15_00h46.49.946,openIAT,2023.1.3,MacIntel,62.5,
,,,,,,a,1,0.41,,,,,,,,,0.41,1,0,6,6,5,1,stimuli/blank.png,meine,a,AN10JR,2023-08-15_00h46.49.946,openIAT,2023.1.3,MacIntel,62.5,
,,,,,,a,1,0.42,,,,,,,,,0.42,1,0,7,7,13,1,stimuli/blank.png,mir,a,AN10JR,2023-08-15_00h46.49.946,openIAT,2023.1.3,MacIntel,62.5,
,,,,,,l,1,0.545,,,,,,,,,0.545,1,0,8,8,14,1,stimuli/blank.png,jene,l,AN10JR,2023-08-15_00h46.49.946,openIAT,2023.1.3,MacIntel,62.5,
,,,,,,a,0,0.478,,,,,,,,,0.478,0,0,9,9,0,1,stimuli/blank.png,andere,l,AN10JR,2023-08-15_00h46.49.946,openIAT,2023.1.3,MacIntel,62.5,
,,,,,,l,0,0.032,,,,,,,,,0.032,0,0,10,10,7,1,stimuli/blank.png,eigene,a,AN10JR,2023-08-15_00h46.49.946,openIAT,2023.1.3,MacIntel,62.5,
,,,,,,l,1,0.732,,,,,,,,,0.732,1,0,11,11,16,1,stimuli/blank.png,euch,l,AN10JR,2023-08-15_00h46.49.946,openIAT,2023.1.3,MacIntel,62.5,
,,,,,,a,1,0.596,,,,,,,,,0.596,1,0,12,12,15,1,stimuli/blank.png,meine,a,AN10JR,2023-08-15_00h46.49.946,openIAT,2023.1.3,MacIntel,62.5,
,,,,,,l,1,0.845,,,,,,,,,0.845,1,0,13,13,10,1,stimuli/blank.png,andere,l,AN10JR,2023-08-15_00h46.49.946,openIAT,2023.1.3,MacIntel,62.5,
,,,,,,l,1,0.494,,,,,,,,,0.494,1,0,14,14,12,1,stimuli/blank.png,ihr,l,AN10JR,2023-08-15_00h46.49.946,openIAT,2023.1.3,MacIntel,62.5,
,,,,,,a,1,0.76,,,,,,,,,0.76,1,0,15,15,9,1,stimuli/blank.png,selbst,a,AN10JR,2023-08-15_00h46.49.946,openIAT,2023.1.3,MacIntel,62.5,
,,,,,,a,1,0.402,,,,,,,,,0.402,1,0,16,16,19,1,stimuli/blank.png,selbst,a,AN10JR,2023-08-15_00h46.49.946,openIAT,2023.1.3,MacIntel,62.5,
,,,,,,a,1,0.495,,,,,,,,,0.495,1,0,17,17,1,1,stimuli/blank.png,ich,a,AN10JR,2023-08-15_00h46.49.946,openIAT,2023.1.3,MacIntel,62.5,
,,,,,,l,1,0.495,,,,,,,,,0.495,1,0,18,18,8,1,stimuli/blank.png,eure,l,AN10JR,2023-08-15_00h46.49.946,openIAT,2023.1.3,MacIntel,62.5,
,,,,,,l,1,0.5,,,,,,,,,0.5,1,0,19,19,18,1,stimuli/blank.png,eure,l,AN10JR,2023-08-15_00h46.49.946,openIAT,2023.1.3,MacIntel,62.5,
,,,,,,l,1,0.675,,,,,,,,,0.675,1,0,0,0,8,1,stimuli/blank.png,eure,l,AN10JR,2023-08-15_00h46.49.946,openIAT,2023.1.3,MacIntel,62.5,
,,,,,,a,1,0.596,,,,,,,,,0.596,1,0,1,1,3,1,stimuli/blank.png,mir,a,AN10JR,2023-08-15_00h46.49.946,openIAT,2023.1.3,MacIntel,62.5,
,,,,,,l,1,0.613,,,,,,,,,0.613,1,0,2,2,15,1,stimuli/blank.png,träge,l,AN10JR,2023-08-15_00h46.49.946,openIAT,2023.1.3,MacIntel,62.5,
,,,,,,a,1,0.638,,,,,,,,,0.638,1,0,3,3,18,1,stimuli/blank.png,human,a,AN10JR,2023-08-15_00h46.49.946,openIAT,2023.1.3,MacIntel,62.5,
,,,,,,l,1,0.644,,,,,,,,,0.644,1,0,4,4,4,1,stimuli/blank.png,jene,l,AN10JR,2023-08-15_00h46.49.946,openIAT,2023.1.3,MacIntel,62.5,
,,,,,,l,1,0.78,,,,,,,,,0.78,1,0,5,5,2,1,stimuli/blank.png,ihr,l,AN10JR,2023-08-15_00h46.49.946,openIAT,2023.1.3,MacIntel,62.5,
,,,,,,a,1,0.529,,,,,,,,,0.529,1,0,6,6,14,1,stimuli/blank.png,gerecht,a,AN10JR,2023-08-15_00h46.49.946,openIAT,2023.1.3,MacIntel,62.5,
,,,,,,a,1,0.494,,,,,,,,,0.494,1,0,7,7,1,1,stimuli/blank.png,ich,a,AN10JR,2023-08-15_00h46.49.946,openIAT,2023.1.3,MacIntel,62.5,
,,,,,,l,1,0.511,,,,,,,,,0.511,1,0,8,8,0,1,stimuli/blank.png,andere,l,AN10JR,2023-08-15_00h46.49.946,openIAT,2023.1.3,MacIntel,62.5,
,,,,,,l,1,0.663,,,,,,,,,0.663,1,0,9,9,13,1,stimuli/blank.png,verlogen,l,AN10JR,2023-08-15_00h46.49.946,openIAT,2023.1.3,MacIntel,62.5,
,,,,,,l,1,0.547,,,,,,,,,0.547,1,0,10,10,6,1,stimuli/blank.png,euch,l,AN10JR,2023-08-15_00h46.49.946,openIAT,2023.1.3,MacIntel,62.5,
,,,,,,l,0,0.614,,,,,,,,,0.614,0,0,11,11,10,1,stimuli/blank.png,aktiv,a,AN10JR,2023-08-15_00h46.49.946,openIAT,2023.1.3,MacIntel,62.5,
,,,,,,l,1,0.614,,,,,,,,,0.614,1,0,12,12,11,1,stimuli/blank.png,brutal,l,AN10JR,2023-08-15_00h46.49.946,openIAT,2023.1.3,MacIntel,62.5,
,,,,,,a,1,0.68,,,,,,,,,0.68,1,0,13,13,16,1,stimuli/blank.png,begabt,a,AN10JR,2023-08-15_00h46.49.946,openIAT,2023.1.3,MacIntel,62.5,
,,,,,,a,1,0.965,,,,,,,,,0.965,1,0,14,14,5,1,stimuli/blank.png,meine,a,AN10JR,2023-08-15_00h46.49.946,openIAT,2023.1.3,MacIntel,62.5,
,,,,,,l,1,0.545,,,,,,,,,0.545,1,0,15,15,17,1,stimuli/blank.png,eitel,l,AN10JR,2023-08-15_00h46.49.946,openIAT,2023.1.3,MacIntel,62.5,
,,,,,,a,1,0.578,,,,,,,,,0.578,1,0,16,16,7,1,stimuli/blank.png,eigene,a,AN10JR,2023-08-15_00h46.49.946,openIAT,2023.1.3,MacIntel,62.5,
,,,,,,a,1,0.796,,,,,,,,,0.796,1,0,17,17,12,1,stimuli/blank.png,fröhlich,a,AN10JR,2023-08-15_00h46.49.946,openIAT,2023.1.3,MacIntel,62.5,
,,,,,,l,1,0.596,,,,,,,,,0.596,1,0,18,18,19,1,stimuli/blank.png,lustlos,l,AN10JR,2023-08-15_00h46.49.946,openIAT,2023.1.3,MacIntel,62.5,
,,,,,,a,1,1.979,,,,,,,,,1.979,1,0,19,19,9,1,stimuli/blank.png,selbst,a,AN10JR,2023-08-15_00h46.49.946,openIAT,2023.1.3,MacIntel,62.5,
,,,,,,a,1,0.932,,,,,,,,,0.932,1,0,0,0,21,1,stimuli/blank.png,ich,a,AN10JR,2023-08-15_00h46.49.946,openIAT,2023.1.3,MacIntel,62.5,
,,,,,,l,1,0.596,,,,,,,,,0.596,1,0,1,1,39,1,stimuli/blank.png,lustlos,l,AN10JR,2023-08-15_00h46.49.946,openIAT,2023.1.3,MacIntel,62.5,
,,,,,,l,1,1.229,,,,,,,,,1.229,1,0,2,2,8,1,stimuli/blank.png,eure,l,AN10JR,2023-08-15_00h46.49.946,openIAT,2023.1.3,MacIntel,62.5,
,,,,,,a,1,0.629,,,,,,,,,0.629,1,0,3,3,38,1,stimuli/blank.png,human,a,AN10JR,2023-08-15_00h46.49.946,openIAT,2023.1.3,MacIntel,62.5,
,,,,,,l,1,0.562,,,,,,,,,0.562,1,0,4,4,24,1,stimuli/blank.png,jene,l,AN10JR,2023-08-15_00h46.49.946,openIAT,2023.1.3,MacIntel,62.5,
,,,,,,a,1,0.55,,,,,,,,,0.55,1,0,5,5,16,1,stimuli/blank.png,begabt,a,AN10JR,2023-08-15_00h46.49.946,openIAT,2023.1.3,MacIntel,62.5,
,,,,,,a,0,0.412,,,,,,,,,0.412,0,0,6,6,35,1,stimuli/blank.png,träge,l,AN10JR,2023-08-15_00h46.49.946,openIAT,2023.1.3,MacIntel,62.5,
,,,,,,l,1,0.697,,,,,,,,,0.697,1,0,7,7,28,1,stimuli/blank.png,eure,l,AN10JR,2023-08-15_00h46.49.946,openIAT,2023.1.3,MacIntel,62.5,
,,,,,,a,1,0.512,,,,,,,,,0.512,1,0,8,8,32,1,stimuli/blank.png,fröhlich,a,AN10JR,2023-08-15_00h46.49.946,openIAT,2023.1.3,MacIntel,62.5,
,,,,,,a,1,0.528,,,,,,,,,0.528,1,0,9,9,23,1,stimuli/blank.png,mir,a,AN10JR,2023-08-15_00h46.49.946,openIAT,2023.1.3,MacIntel,62.5,
,,,,,,l,1,0.45,,,,,,,,,0.45,1,0,10,10,31,1,stimuli/blank.png,brutal,l,AN10JR,2023-08-15_00h46.49.946,openIAT,2023.1.3,MacIntel,62.5,
,,,,,,l,1,0.662,,,,,,,,,0.662,1,0,11,11,19,1,stimuli/blank.png,lustlos,l,AN10JR,2023-08-15_00h46.49.946,openIAT,2023.1.3,MacIntel,62.5,
,,,,,,l,1,0.529,,,,,,,,,0.529,1,0,12,12,15,1,stimuli/blank.png,träge,l,AN10JR,2023-08-15_00h46.49.946,openIAT,2023.1.3,MacIntel,62.5,
,,,,,,l,1,0.778,,,,,,,,,0.778,1,0,13,13,22,1,stimuli/blank.png,ihr,l,AN10JR,2023-08-15_00h46.49.946,openIAT,2023.1.3,MacIntel,62.5,
,,,,,,l,1,0.584,,,,,,,,,0.584,1,0,14,14,4,1,stimuli/blank.png,jene,l,AN10JR,2023-08-15_00h46.49.946,openIAT,2023.1.3,MacIntel,62.5,
,,,,,,a,1,0.538,,,,,,,,,0.538,1,0,15,15,30,1,stimuli/blank.png,aktiv,a,AN10JR,2023-08-15_00h46.49.946,openIAT,2023.1.3,MacIntel,62.5,
,,,,,,l,1,0.612,,,,,,,,,0.612,1,0,16,16,33,1,stimuli/blank.png,verlogen,l,AN10JR,2023-08-15_00h46.49.946,openIAT,2023.1.3,MacIntel,62.5,
,,,,,,l,1,0.518,,,,,,,,,0.518,1,0,17,17,13,1,stimuli/blank.png,verlogen,l,AN10JR,2023-08-15_00h46.49.946,openIAT,2023.1.3,MacIntel,62.5,
,,,,,,l,0,0.428,,,,,,,,,0.428,0,0,18,18,10,1,stimuli/blank.png,aktiv,a,AN10JR,2023-08-15_00h46.49.946,openIAT,2023.1.3,MacIntel,62.5,
,,,,,,a,1,0.562,,,,,,,,,0.562,1,0,19,19,12,1,stimuli/blank.png,fröhlich,a,AN10JR,2023-08-15_00h46.49.946,openIAT,2023.1.3,MacIntel,62.5,
,,,,,,a,1,0.712,,,,,,,,,0.712,1,0,20,20,9,1,stimuli/blank.png,selbst,a,AN10JR,2023-08-15_00h46.49.946,openIAT,2023.1.3,MacIntel,62.5,
,,,,,,a,1,0.65,,,,,,,,,0.65,1,0,21,21,14,1,stimuli/blank.png,gerecht,a,AN10JR,2023-08-15_00h46.49.946,openIAT,2023.1.3,MacIntel,62.5,
,,,,,,a,1,0.597,,,,,,,,,0.597,1,0,22,22,36,1,stimuli/blank.png,begabt,a,AN10JR,2023-08-15_00h46.49.946,openIAT,2023.1.3,MacIntel,62.5,
,,,,,,l,1,0.812,,,,,,,,,0.812,1,0,23,23,26,1,stimuli/blank.png,euch,l,AN10JR,2023-08-15_00h46.49.946,openIAT,2023.1.3,MacIntel,62.5,
,,,,,,l,1,0.662,,,,,,,,,0.662,1,0,24,24,37,1,stimuli/blank.png,eitel,l,AN10JR,2023-08-15_00h46.49.946,openIAT,2023.1.3,MacIntel,62.5,
,,,,,,a,1,0.529,,,,,,,,,0.529,1,0,25,25,5,1,stimuli/blank.png,meine,a,AN10JR,2023-08-15_00h46.49.946,openIAT,2023.1.3,MacIntel,62.5,
,,,,,,a,1,0.63,,,,,,,,,0.63,1,0,26,26,34,1,stimuli/blank.png,gerecht,a,AN10JR,2023-08-15_00h46.49.946,openIAT,2023.1.3,MacIntel,62.5,
,,,,,,a,1,0.699,,,,,,,,,0.699,1,0,27,27,3,1,stimuli/blank.png,mir,a,AN10JR,2023-08-15_00h46.49.946,openIAT,2023.1.3,MacIntel,62.5,
,,,,,,l,1,0.549,,,,,,,,,0.549,1,0,28,28,17,1,stimuli/blank.png,eitel,l,AN10JR,2023-08-15_00h46.49.946,openIAT,2023.1.3,MacIntel,62.5,
,,,,,,l,1,0.46,,,,,,,,,0.46,1,0,29,29,11,1,stimuli/blank.png,brutal,l,AN10JR,2023-08-15_00h46.49.946,openIAT,2023.1.3,MacIntel,62.5,
,,,,,,a,1,0.494,,,,,,,,,0.494,1,0,30,30,1,1,stimuli/blank.png,ich,a,AN10JR,2023-08-15_00h46.49.946,openIAT,2023.1.3,MacIntel,62.5,
,,,,,,l,1,0.677,,,,,,,,,0.677,1,0,31,31,2,1,stimuli/blank.png,ihr,l,AN10JR,2023-08-15_00h46.49.946,openIAT,2023.1.3,MacIntel,62.5,
,,,,,,a,1,0.531,,,,,,,,,0.531,1,0,32,32,18,1,stimuli/blank.png,human,a,AN10JR,2023-08-15_00h46.49.946,openIAT,2023.1.3,MacIntel,62.5,
,,,,,,a,1,0.678,,,,,,,,,0.678,1,0,33,33,25,1,stimuli/blank.png,meine,a,AN10JR,2023-08-15_00h46.49.946,openIAT,2023.1.3,MacIntel,62.5,
,,,,,,l,0,0.68,,,,,,,,,0.68,0,0,34,34,29,1,stimuli/blank.png,selbst,a,AN10JR,2023-08-15_00h46.49.946,openIAT,2023.1.3,MacIntel,62.5,
,,,,,,a,0,0.135,,,,,,,,,0.135,0,0,35,35,0,1,stimuli/blank.png,andere,l,AN10JR,2023-08-15_00h46.49.946,openIAT,2023.1.3,MacIntel,62.5,
,,,,,,a,1,0.769,,,,,,,,,0.769,1,0,36,36,7,1,stimuli/blank.png,eigene,a,AN10JR,2023-08-15_00h46.49.946,openIAT,2023.1.3,MacIntel,62.5,
,,,,,,a,1,0.5,,,,,,,,,0.5,1,0,37,37,27,1,stimuli/blank.png,eigene,a,AN10JR,2023-08-15_00h46.49.946,openIAT,2023.1.3,MacIntel,62.5,
,,,,,,l,1,0.529,,,,,,,,,0.529,1,0,38,38,6,1,stimuli/blank.png,euch,l,AN10JR,2023-08-15_00h46.49.946,openIAT,2023.1.3,MacIntel,62.5,
,,,,,,l,1,0.729,,,,,,,,,0.729,1,0,39,39,20,1,stimuli/blank.png,andere,l,AN10JR,2023-08-15_00h46.49.946,openIAT,2023.1.3,MacIntel,62.5,
,,,,,,l,1,0.875,,,,,,,,,0.875,1,0,0,0,7,1,stimuli/blank.png,eigene,l,AN10JR,2023-08-15_00h46.49.946,openIAT,2023.1.3,MacIntel,62.5,
,,,,,,l,1,0.6,,,,,,,,,0.6,1,0,1,1,19,1,stimuli/blank.png,selbst,l,AN10JR,2023-08-15_00h46.49.946,openIAT,2023.1.3,MacIntel,62.5,
,,,,,,a,1,0.897,,,,,,,,,0.897,1,0,2,2,0,1,stimuli/blank.png,andere,a,AN10JR,2023-08-15_00h46.49.946,openIAT,2023.1.3,MacIntel,62.5,
,,,,,,a,1,0.929,,,,,,,,,0.929,1,0,3,3,4,1,stimuli/blank.png,jene,a,AN10JR,2023-08-15_00h46.49.946,openIAT,2023.1.3,MacIntel,62.5,
,,,,,,l,1,0.699,,,,,,,,,0.699,1,0,4,4,13,1,stimuli/blank.png,mir,l,AN10JR,2023-08-15_00h46.49.946,openIAT,2023.1.3,MacIntel,62.5,
,,,,,,a,1,0.894,,,,,,,,,0.894,1,0,5,5,2,1,stimuli/blank.png,ihr,a,AN10JR,2023-08-15_00h46.49.946,openIAT,2023.1.3,MacIntel,62.5,
,,,,,,l,1,0.597,,,,,,,,,0.597,1,0,6,6,5,1,stimuli/blank.png,meine,l,AN10JR,2023-08-15_00h46.49.946,openIAT,2023.1.3,MacIntel,62.5,
,,,,,,l,1,0.513,,,,,,,,,0.513,1,0,7,7,11,1,stimuli/blank.png,ich,l,AN10JR,2023-08-15_00h46.49.946,openIAT,2023.1.3,MacIntel,62.5,
,,,,,,a,1,0.595,,,,,,,,,0.595,1,0,8,8,16,1,stimuli/blank.png,euch,a,AN10JR,2023-08-15_00h46.49.946,openIAT,2023.1.3,MacIntel,62.5,
,,,,,,a,1,0.58,,,,,,,,,0.58,1,0,9,9,18,1,stimuli/blank.png,eure,a,AN10JR,2023-08-15_00h46.49.946,openIAT,2023.1.3,MacIntel,62.5,
,,,,,,l,1,0.661,,,,,,,,,0.661,1,0,10,10,17,1,stimuli/blank.png,eigene,l,AN10JR,2023-08-15_00h46.49.946,openIAT,2023.1.3,MacIntel,62.5,
,,,,,,l,1,0.562,,,,,,,,,0.562,1,0,11,11,3,1,stimuli/blank.png,mir,l,AN10JR,2023-08-15_00h46.49.946,openIAT,2023.1.3,MacIntel,62.5,
,,,,,,a,1,0.561,,,,,,,,,0.561,1,0,12,12,8,1,stimuli/blank.png,eure,a,AN10JR,2023-08-15_00h46.49.946,openIAT,2023.1.3,MacIntel,62.5,
,,,,,,l,0,0.613,,,,,,,,,0.613,0,0,13,13,6,1,stimuli/blank.png,euch,a,AN10JR,2023-08-15_00h46.49.946,openIAT,2023.1.3,MacIntel,62.5,
,,,,,,l,1,0.545,,,,,,,,,0.545,1,0,14,14,15,1,stimuli/blank.png,meine,l,AN10JR,2023-08-15_00h46.49.946,openIAT,2023.1.3,MacIntel,62.5,
,,,,,,a,1,0.498,,,,,,,,,0.498,1,0,15,15,10,1,stimuli/blank.png,andere,a,AN10JR,2023-08-15_00h46.49.946,openIAT,2023.1.3,MacIntel,62.5,
,,,,,,a,1,0.879,,,,,,,,,0.879,1,0,16,16,12,1,stimuli/blank.png,ihr,a,AN10JR,2023-08-15_00h46.49.946,openIAT,2023.1.3,MacIntel,62.5,
,,,,,,l,1,0.6,,,,,,,,,0.6,1,0,17,17,9,1,stimuli/blank.png,selbst,l,AN10JR,2023-08-15_00h46.49.946,openIAT,2023.1.3,MacIntel,62.5,
,,,,,,a,1,0.597,,,,,,,,,0.597,1,0,18,18,14,1,stimuli/blank.png,jene,a,AN10JR,2023-08-15_00h46.49.946,openIAT,2023.1.3,MacIntel,62.5,
,,,,,,l,1,0.414,,,,,,,,,0.414,1,0,19,19,1,1,stimuli/blank.png,ich,l,AN10JR,2023-08-15_00h46.49.946,openIAT,2023.1.3,MacIntel,62.5,
,,,,,,a,1,1.54,,,,,,,,,1.54,1,0,0,0,10,1,stimuli/blank.png,aktiv,a,AN10JR,2023-08-15_00h46.49.946,openIAT,2023.1.3,MacIntel,62.5,
,,,,,,a,1,0.919,,,,,,,,,0.919,1,0,1,1,6,1,stimuli/blank.png,euch,a,AN10JR,2023-08-15_00h46.49.946,openIAT,2023.1.3,MacIntel,62.5,
,,,,,,a,1,0.68,,,,,,,,,0.68,1,0,2,2,2,1,stimuli/blank.png,ihr,a,AN10JR,2023-08-15_00h46.49.946,openIAT,2023.1.3,MacIntel,62.5,
,,,,,,a,1,1.164,,,,,,,,,1.164,1,0,3,3,14,1,stimuli/blank.png,gerecht,a,AN10JR,2023-08-15_00h46.49.946,openIAT,2023.1.3,MacIntel,62.5,
,,,,,,l,1,0.597,,,,,,,,,0.597,1,0,4,4,1,1,stimuli/blank.png,ich,l,AN10JR,2023-08-15_00h46.49.946,openIAT,2023.1.3,MacIntel,62.5,
,,,,,,l,1,0.979,,,,,,,,,0.979,1,0,5,5,3,1,stimuli/blank.png,mir,l,AN10JR,2023-08-15_00h46.49.946,openIAT,2023.1.3,MacIntel,62.5,
,,,,,,l,1,0.729,,,,,,,,,0.729,1,0,6,6,7,1,stimuli/blank.png,eigene,l,AN10JR,2023-08-15_00h46.49.946,openIAT,2023.1.3,MacIntel,62.5,
,,,,,,l,0,0.494,,,,,,,,,0.494,0,0,7,7,12,1,stimuli/blank.png,fröhlich,a,AN10JR,2023-08-15_00h46.49.946,openIAT,2023.1.3,MacIntel,62.5,
,,,,,,a,1,0.895,,,,,,,,,0.895,1,0,8,8,18,1,stimuli/blank.png,human,a,AN10JR,2023-08-15_00h46.49.946,openIAT,2023.1.3,MacIntel,62.5,
,,,,,,l,1,0.962,,,,,,,,,0.962,1,0,9,9,19,1,stimuli/blank.png,lustlos,l,AN10JR,2023-08-15_00h46.49.946,openIAT,2023.1.3,MacIntel,62.5,
,,,,,,a,1,0.841,,,,,,,,,0.841,1,0,10,10,4,1,stimuli/blank.png,jene,a,AN10JR,2023-08-15_00h46.49.946,openIAT,2023.1.3,MacIntel,62.5,
,,,,,,a,1,0.862,,,,,,,,,0.862,1,0,11,11,8,1,stimuli/blank.png,eure,a,AN10JR,2023-08-15_00h46.49.946,openIAT,2023.1.3,MacIntel,62.5,
,,,,,,l,1,0.816,,,,,,,,,0.816,1,0,12,12,15,1,stimuli/blank.png,träge,l,AN10JR,2023-08-15_00h46.49.946,openIAT,2023.1.3,MacIntel,62.5,
,,,,,,a,1,0.812,,,,,,,,,0.812,1,0,13,13,16,1,stimuli/blank.png,begabt,a,AN10JR,2023-08-15_00h46.49.946,openIAT,2023.1.3,MacIntel,62.5,
,,,,,,a,1,0.711,,,,,,,,,0.711,1,0,14,14,0,1,stimuli/blank.png,andere,a,AN10JR,2023-08-15_00h46.49.946,openIAT,2023.1.3,MacIntel,62.5,
,,,,,,l,1,0.828,,,,,,,,,0.828,1,0,15,15,5,1,stimuli/blank.png,meine,l,AN10JR,2023-08-15_00h46.49.946,openIAT,2023.1.3,MacIntel,62.5,
,,,,,,l,1,1.214,,,,,,,,,1.214,1,0,16,16,17,1,stimuli/blank.png,eitel,l,AN10JR,2023-08-15_00h46.49.946,openIAT,2023.1.3,MacIntel,62.5,
,,,,,,l,1,0.75,,,,,,,,,0.75,1,0,17,17,11,1,stimuli/blank.png,brutal,l,AN10JR,2023-08-15_00h46.49.946,openIAT,2023.1.3,MacIntel,62.5,
,,,,,,l,1,0.646,,,,,,,,,0.646,1,0,18,18,9,1,stimuli/blank.png,selbst,l,AN10JR,2023-08-15_00h46.49.946,openIAT,2023.1.3,MacIntel,62.5,
,,,,,,l,1,1.18,,,,,,,,,1.18,1,0,19,19,13,1,stimuli/blank.png,verlogen,l,AN10JR,2023-08-15_00h46.49.946,openIAT,2023.1.3,MacIntel,62.5,
,,,,,,l,1,1.063,,,,,,,,,1.063,1,0,0,0,29,1,stimuli/blank.png,selbst,l,AN10JR,2023-08-15_00h46.49.946,openIAT,2023.1.3,MacIntel,62.5,
,,,,,,a,1,0.849,,,,,,,,,0.849,1,0,1,1,18,1,stimuli/blank.png,human,a,AN10JR,2023-08-15_00h46.49.946,openIAT,2023.1.3,MacIntel,62.5,
,,,,,,a,1,1.396,,,,,,,,,1.396,1,0,2,2,0,1,stimuli/blank.png,andere,a,AN10JR,2023-08-15_00h46.49.946,openIAT,2023.1.3,MacIntel,62.5,
,,,,,,l,1,0.802,,,,,,,,,0.802,1,0,3,3,19,1,stimuli/blank.png,lustlos,l,AN10JR,2023-08-15_00h46.49.946,openIAT,2023.1.3,MacIntel,62.5,
,,,,,,a,1,0.952,,,,,,,,,0.952,1,0,4,4,26,1,stimuli/blank.png,euch,a,AN10JR,2023-08-15_00h46.49.946,openIAT,2023.1.3,MacIntel,62.5,
,,,,,,l,0,1.262,,,,,,,,,1.262,0,0,5,5,10,1,stimuli/blank.png,aktiv,a,AN10JR,2023-08-15_00h46.49.946,openIAT,2023.1.3,MacIntel,62.5,
,,,,,,a,1,0.897,,,,,,,,,0.897,1,0,6,6,4,1,stimuli/blank.png,jene,a,AN10JR,2023-08-15_00h46.49.946,openIAT,2023.1.3,MacIntel,62.5,
,,,,,,l,1,0.782,,,,,,,,,0.782,1,0,7,7,35,1,stimuli/blank.png,träge,l,AN10JR,2023-08-15_00h46.49.946,openIAT,2023.1.3,MacIntel,62.5,
,,,,,,l,1,0.631,,,,,,,,,0.631,1,0,8,8,23,1,stimuli/blank.png,mir,l,AN10JR,2023-08-15_00h46.49.946,openIAT,2023.1.3,MacIntel,62.5,
,,,,,,a,1,0.648,,,,,,,,,0.648,1,0,9,9,8,1,stimuli/blank.png,eure,a,AN10JR,2023-08-15_00h46.49.946,openIAT,2023.1.3,MacIntel,62.5,
,,,,,,a,1,1.128,,,,,,,,,1.128,1,0,10,10,34,1,stimuli/blank.png,gerecht,a,AN10JR,2023-08-15_00h46.49.946,openIAT,2023.1.3,MacIntel,62.5,
,,,,,,a,1,0.979,,,,,,,,,0.979,1,0,11,11,28,1,stimuli/blank.png,eure,a,AN10JR,2023-08-15_00h46.49.946,openIAT,2023.1.3,MacIntel,62.5,
,,,,,,a,1,0.618,,,,,,,,,0.618,1,0,12,12,24,1,stimuli/blank.png,jene,a,AN10JR,2023-08-15_00h46.49.946,openIAT,2023.1.3,MacIntel,62.5,
,,,,,,l,1,1.431,,,,,,,,,1.431,1,0,13,13,39,1,stimuli/blank.png,lustlos,l,AN10JR,2023-08-15_00h46.49.946,openIAT,2023.1.3,MacIntel,62.5,
,,,,,,l,1,0.88,,,,,,,,,0.88,1,0,14,14,5,1,stimuli/blank.png,meine,l,AN10JR,2023-08-15_00h46.49.946,openIAT,2023.1.3,MacIntel,62.5,
,,,,,,l,1,0.603,,,,,,,,,0.603,1,0,15,15,27,1,stimuli/blank.png,eigene,l,AN10JR,2023-08-15_00h46.49.946,openIAT,2023.1.3,MacIntel,62.5,
,,,,,,l,1,0.517,,,,,,,,,0.517,1,0,16,16,31,1,stimuli/blank.png,brutal,l,AN10JR,2023-08-15_00h46.49.946,openIAT,2023.1.3,MacIntel,62.5,
,,,,,,a,1,0.661,,,,,,,,,0.661,1,0,17,17,16,1,stimuli/blank.png,begabt,a,AN10JR,2023-08-15_00h46.49.946,openIAT,2023.1.3,MacIntel,62.5,
,,,,,,a,0,0.614,,,,,,,,,0.614,0,0,18,18,15,1,stimuli/blank.png,träge,l,AN10JR,2023-08-15_00h46.49.946,openIAT,2023.1.3,MacIntel,62.5,
,,,,,,a,1,0.863,,,,,,,,,0.863,1,0,19,19,32,1,stimuli/blank.png,fröhlich,a,AN10JR,2023-08-15_00h46.49.946,openIAT,2023.1.3,MacIntel,62.5,
,,,,,,a,1,0.812,,,,,,,,,0.812,1,0,20,20,30,1,stimuli/blank.png,aktiv,a,AN10JR,2023-08-15_00h46.49.946,openIAT,2023.1.3,MacIntel,62.5,
,,,,,,l,1,0.529,,,,,,,,,0.529,1,0,21,21,13,1,stimuli/blank.png,verlogen,l,AN10JR,2023-08-15_00h46.49.946,openIAT,2023.1.3,MacIntel,62.5,
,,,,,,l,1,0.828,,,,,,,,,0.828,1,0,22,22,17,1,stimuli/blank.png,eitel,l,AN10JR,2023-08-15_00h46.49.946,openIAT,2023.1.3,MacIntel,62.5,
,,,,,,a,1,0.687,,,,,,,,,0.687,1,0,23,23,2,1,stimuli/blank.png,ihr,a,AN10JR,2023-08-15_00h46.49.946,openIAT,2023.1.3,MacIntel,62.5,
,,,,,,l,1,0.647,,,,,,,,,0.647,1,0,24,24,33,1,stimuli/blank.png,verlogen,l,AN10JR,2023-08-15_00h46.49.946,openIAT,2023.1.3,MacIntel,62.5,
,,,,,,l,1,0.797,,,,,,,,,0.797,1,0,25,25,9,1,stimuli/blank.png,selbst,l,AN10JR,2023-08-15_00h46.49.946,openIAT,2023.1.3,MacIntel,62.5,
,,,,,,l,1,0.701,,,,,,,,,0.701,1,0,26,26,37,1,stimuli/blank.png,eitel,l,AN10JR,2023-08-15_00h46.49.946,openIAT,2023.1.3,MacIntel,62.5,
,,,,,,l,1,0.796,,,,,,,,,0.796,1,0,27,27,7,1,stimuli/blank.png,eigene,l,AN10JR,2023-08-15_00h46.49.946,openIAT,2023.1.3,MacIntel,62.5,
,,,,,,l,1,0.664,,,,,,,,,0.664,1,0,28,28,25,1,stimuli/blank.png,meine,l,AN10JR,2023-08-15_00h46.49.946,openIAT,2023.1.3,MacIntel,62.5,
,,,,,,a,1,0.618,,,,,,,,,0.618,1,0,29,29,22,1,stimuli/blank.png,ihr,a,AN10JR,2023-08-15_00h46.49.946,openIAT,2023.1.3,MacIntel,62.5,
,,,,,,l,0,0.578,,,,,,,,,0.578,0,0,30,30,36,1,stimuli/blank.png,begabt,a,AN10JR,2023-08-15_00h46.49.946,openIAT,2023.1.3,MacIntel,62.5,
,,,,,,l,1,0.662,,,,,,,,,0.662,1,0,31,31,11,1,stimuli/blank.png,brutal,l,AN10JR,2023-08-15_00h46.49.946,openIAT,2023.1.3,MacIntel,62.5,
,,,,,,l,1,0.646,,,,,,,,,0.646,1,0,32,32,3,1,stimuli/blank.png,mir,l,AN10JR,2023-08-15_00h46.49.946,openIAT,2023.1.3,MacIntel,62.5,
,,,,,,a,1,0.745,,,,,,,,,0.745,1,0,33,33,14,1,stimuli/blank.png,gerecht,a,AN10JR,2023-08-15_00h46.49.946,openIAT,2023.1.3,MacIntel,62.5,
,,,,,,a,1,0.779,,,,,,,,,0.779,1,0,34,34,6,1,stimuli/blank.png,euch,a,AN10JR,2023-08-15_00h46.49.946,openIAT,2023.1.3,MacIntel,62.5,
,,,,,,a,1,0.745,,,,,,,,,0.745,1,0,35,35,20,1,stimuli/blank.png,andere,a,AN10JR,2023-08-15_00h46.49.946,openIAT,2023.1.3,MacIntel,62.5,
,,,,,,l,1,0.63,,,,,,,,,0.63,1,0,36,36,21,1,stimuli/blank.png,ich,l,AN10JR,2023-08-15_00h46.49.946,openIAT,2023.1.3,MacIntel,62.5,
,,,,,,a,1,0.664,,,,,,,,,0.664,1,0,37,37,12,1,stimuli/blank.png,fröhlich,a,AN10JR,2023-08-15_00h46.49.946,openIAT,2023.1.3,MacIntel,62.5,
,,,,,,a,1,0.795,,,,,,,,,0.795,1,0,38,38,38,1,stimuli/blank.png,human,a,AN10JR,2023-08-15_00h46.49.946,openIAT,2023.1.3,MacIntel,62.5,
,,,,,,l,1,0.745,,,,,,,,,0.745,1,0,39,39,1,1,stimuli/blank.png,ich,l,AN10JR,2023-08-15_00h46.49.946,openIAT,2023.1.3,MacIntel,62.5,
,,,,,,,,,,,,,,,,,,,,,,,,,,,AN10JR,2023-08-15_00h46.49.946,openIAT,2023.1.3,MacIntel,62.5,
