instr_done_touch.x,instr_done_touch.y,instr_done_touch.leftButton,instr_done_touch.midButton,instr_done_touch.rightButton,instr_done_touch.clicked_name,key_resp.keys,key_resp.corr,key_resp.rt,key_resp.duration,touch_resp.x,touch_resp.y,touch_resp.leftButton,touch_resp.midButton,touch_resp.rightButton,touch_resp.time,touch_resp.clicked_name,rt,corr,trials.thisRepN,trials.thisTrialN,trials.thisN,trials.thisIndex,trials.ran,stimImage,stimWord,CorrAns,participant,date,expName,psychopyVersion,OS,frameRate,return_tic
-0.107777778,-0.362222222,1,0,0,instr_done_button,a,1,1.325,,,,,,,,,1.325,1,0,0,0,18,1,stimuli/blank.png,human,a,AT04IA,2023-08-23_12h21.33.855,openIAT,2023.1.3,MacIntel,62.5,
,,,,,,l,1,0.794,,,,,,,,,0.794,1,0,1,1,1,1,stimuli/blank.png,brutal,l,AT04IA,2023-08-23_12h21.33.855,openIAT,2023.1.3,MacIntel,62.5,
,,,,,,l,1,1.265,,,,,,,,,1.265,1,0,2,2,7,1,stimuli/blank.png,eitel,l,AT04IA,2023-08-23_12h21.33.855,openIAT,2023.1.3,MacIntel,62.5,
,,,,,,l,1,0.645,,,,,,,,,0.645,1,0,3,3,19,1,stimuli/blank.png,lustlos,l,AT04IA,2023-08-23_12h21.33.855,openIAT,2023.1.3,MacIntel,62.5,
,,,,,,l,1,0.466,,,,,,,,,0.466,1,0,4,4,11,1,stimuli/blank.png,brutal,l,AT04IA,2023-08-23_12h21.33.855,openIAT,2023.1.3,MacIntel,62.5,
,,,,,,a,1,0.611,,,,,,,,,0.611,1,0,5,5,2,1,stimuli/blank.png,fröhlich,a,AT04IA,2023-08-23_12h21.33.855,openIAT,2023.1.3,MacIntel,62.5,
,,,,,,l,1,0.701,,,,,,,,,0.701,1,0,6,6,5,1,stimuli/blank.png,träge,l,AT04IA,2023-08-23_12h21.33.855,openIAT,2023.1.3,MacIntel,62.5,
,,,,,,l,1,0.611,,,,,,,,,0.611,1,0,7,7,17,1,stimuli/blank.png,eitel,l,AT04IA,2023-08-23_12h21.33.855,openIAT,2023.1.3,MacIntel,62.5,
,,,,,,l,1,0.527,,,,,,,,,0.527,1,0,8,8,3,1,stimuli/blank.png,verlogen,l,AT04IA,2023-08-23_12h21.33.855,openIAT,2023.1.3,MacIntel,62.5,
,,,,,,l,0,0.378,,,,,,,,,0.378,0,0,9,9,8,1,stimuli/blank.png,human,a,AT04IA,2023-08-23_12h21.33.855,openIAT,2023.1.3,MacIntel,62.5,
,,,,,,l,1,0.461,,,,,,,,,0.461,1,0,10,10,9,1,stimuli/blank.png,lustlos,l,AT04IA,2023-08-23_12h21.33.855,openIAT,2023.1.3,MacIntel,62.5,
,,,,,,l,1,0.627,,,,,,,,,0.627,1,0,11,11,13,1,stimuli/blank.png,verlogen,l,AT04IA,2023-08-23_12h21.33.855,openIAT,2023.1.3,MacIntel,62.5,
,,,,,,a,1,0.579,,,,,,,,,0.579,1,0,12,12,0,1,stimuli/blank.png,aktiv,a,AT04IA,2023-08-23_12h21.33.855,openIAT,2023.1.3,MacIntel,62.5,
,,,,,,a,1,0.65,,,,,,,,,0.65,1,0,13,13,4,1,stimuli/blank.png,gerecht,a,AT04IA,2023-08-23_12h21.33.855,openIAT,2023.1.3,MacIntel,62.5,
,,,,,,a,1,0.615,,,,,,,,,0.615,1,0,14,14,6,1,stimuli/blank.png,begabt,a,AT04IA,2023-08-23_12h21.33.855,openIAT,2023.1.3,MacIntel,62.5,
,,,,,,a,1,0.451,,,,,,,,,0.451,1,0,15,15,16,1,stimuli/blank.png,begabt,a,AT04IA,2023-08-23_12h21.33.855,openIAT,2023.1.3,MacIntel,62.5,
,,,,,,a,1,0.594,,,,,,,,,0.594,1,0,16,16,14,1,stimuli/blank.png,gerecht,a,AT04IA,2023-08-23_12h21.33.855,openIAT,2023.1.3,MacIntel,62.5,
,,,,,,a,1,0.629,,,,,,,,,0.629,1,0,17,17,12,1,stimuli/blank.png,fröhlich,a,AT04IA,2023-08-23_12h21.33.855,openIAT,2023.1.3,MacIntel,62.5,
,,,,,,l,1,0.644,,,,,,,,,0.644,1,0,18,18,15,1,stimuli/blank.png,träge,l,AT04IA,2023-08-23_12h21.33.855,openIAT,2023.1.3,MacIntel,62.5,
,,,,,,a,1,0.645,,,,,,,,,0.645,1,0,19,19,10,1,stimuli/blank.png,aktiv,a,AT04IA,2023-08-23_12h21.33.855,openIAT,2023.1.3,MacIntel,62.5,
,,,,,,l,1,1.238,,,,,,,,,1.238,1,0,0,0,4,1,stimuli/blank.png,jene,l,AT04IA,2023-08-23_12h21.33.855,openIAT,2023.1.3,MacIntel,62.5,
,,,,,,a,1,0.594,,,,,,,,,0.594,1,0,1,1,3,1,stimuli/blank.png,mir,a,AT04IA,2023-08-23_12h21.33.855,openIAT,2023.1.3,MacIntel,62.5,
,,,,,,a,1,0.411,,,,,,,,,0.411,1,0,2,2,1,1,stimuli/blank.png,ich,a,AT04IA,2023-08-23_12h21.33.855,openIAT,2023.1.3,MacIntel,62.5,
,,,,,,l,1,0.71,,,,,,,,,0.71,1,0,3,3,18,1,stimuli/blank.png,eure,l,AT04IA,2023-08-23_12h21.33.855,openIAT,2023.1.3,MacIntel,62.5,
,,,,,,l,1,0.583,,,,,,,,,0.583,1,0,4,4,12,1,stimuli/blank.png,ihr,l,AT04IA,2023-08-23_12h21.33.855,openIAT,2023.1.3,MacIntel,62.5,
,,,,,,l,0,0.371,,,,,,,,,0.371,0,0,5,5,11,1,stimuli/blank.png,ich,a,AT04IA,2023-08-23_12h21.33.855,openIAT,2023.1.3,MacIntel,62.5,
,,,,,,a,1,0.511,,,,,,,,,0.511,1,0,6,6,7,1,stimuli/blank.png,eigene,a,AT04IA,2023-08-23_12h21.33.855,openIAT,2023.1.3,MacIntel,62.5,
,,,,,,a,1,0.462,,,,,,,,,0.462,1,0,7,7,15,1,stimuli/blank.png,meine,a,AT04IA,2023-08-23_12h21.33.855,openIAT,2023.1.3,MacIntel,62.5,
,,,,,,a,1,0.467,,,,,,,,,0.467,1,0,8,8,17,1,stimuli/blank.png,eigene,a,AT04IA,2023-08-23_12h21.33.855,openIAT,2023.1.3,MacIntel,62.5,
,,,,,,a,1,0.461,,,,,,,,,0.461,1,0,9,9,5,1,stimuli/blank.png,meine,a,AT04IA,2023-08-23_12h21.33.855,openIAT,2023.1.3,MacIntel,62.5,
,,,,,,l,1,0.577,,,,,,,,,0.577,1,0,10,10,16,1,stimuli/blank.png,euch,l,AT04IA,2023-08-23_12h21.33.855,openIAT,2023.1.3,MacIntel,62.5,
,,,,,,a,1,0.451,,,,,,,,,0.451,1,0,11,11,13,1,stimuli/blank.png,mir,a,AT04IA,2023-08-23_12h21.33.855,openIAT,2023.1.3,MacIntel,62.5,
,,,,,,l,1,0.577,,,,,,,,,0.577,1,0,12,12,10,1,stimuli/blank.png,andere,l,AT04IA,2023-08-23_12h21.33.855,openIAT,2023.1.3,MacIntel,62.5,
,,,,,,l,1,1.127,,,,,,,,,1.127,1,0,13,13,2,1,stimuli/blank.png,ihr,l,AT04IA,2023-08-23_12h21.33.855,openIAT,2023.1.3,MacIntel,62.5,
,,,,,,l,1,0.463,,,,,,,,,0.463,1,0,14,14,8,1,stimuli/blank.png,eure,l,AT04IA,2023-08-23_12h21.33.855,openIAT,2023.1.3,MacIntel,62.5,
,,,,,,a,1,1.247,,,,,,,,,1.247,1,0,15,15,9,1,stimuli/blank.png,selbst,a,AT04IA,2023-08-23_12h21.33.855,openIAT,2023.1.3,MacIntel,62.5,
,,,,,,l,1,0.511,,,,,,,,,0.511,1,0,16,16,6,1,stimuli/blank.png,euch,l,AT04IA,2023-08-23_12h21.33.855,openIAT,2023.1.3,MacIntel,62.5,
,,,,,,l,1,0.597,,,,,,,,,0.597,1,0,17,17,14,1,stimuli/blank.png,jene,l,AT04IA,2023-08-23_12h21.33.855,openIAT,2023.1.3,MacIntel,62.5,
,,,,,,l,1,0.538,,,,,,,,,0.538,1,0,18,18,0,1,stimuli/blank.png,andere,l,AT04IA,2023-08-23_12h21.33.855,openIAT,2023.1.3,MacIntel,62.5,
,,,,,,a,1,0.649,,,,,,,,,0.649,1,0,19,19,19,1,stimuli/blank.png,selbst,a,AT04IA,2023-08-23_12h21.33.855,openIAT,2023.1.3,MacIntel,62.5,
,,,,,,a,1,0.738,,,,,,,,,0.738,1,0,0,0,14,1,stimuli/blank.png,gerecht,a,AT04IA,2023-08-23_12h21.33.855,openIAT,2023.1.3,MacIntel,62.5,
,,,,,,l,1,0.729,,,,,,,,,0.729,1,0,1,1,17,1,stimuli/blank.png,eitel,l,AT04IA,2023-08-23_12h21.33.855,openIAT,2023.1.3,MacIntel,62.5,
,,,,,,l,1,0.612,,,,,,,,,0.612,1,0,2,2,4,1,stimuli/blank.png,jene,l,AT04IA,2023-08-23_12h21.33.855,openIAT,2023.1.3,MacIntel,62.5,
,,,,,,l,1,0.579,,,,,,,,,0.579,1,0,3,3,6,1,stimuli/blank.png,euch,l,AT04IA,2023-08-23_12h21.33.855,openIAT,2023.1.3,MacIntel,62.5,
,,,,,,a,1,0.662,,,,,,,,,0.662,1,0,4,4,16,1,stimuli/blank.png,begabt,a,AT04IA,2023-08-23_12h21.33.855,openIAT,2023.1.3,MacIntel,62.5,
,,,,,,a,1,0.479,,,,,,,,,0.479,1,0,5,5,1,1,stimuli/blank.png,ich,a,AT04IA,2023-08-23_12h21.33.855,openIAT,2023.1.3,MacIntel,62.5,
,,,,,,l,1,0.546,,,,,,,,,0.546,1,0,6,6,0,1,stimuli/blank.png,andere,l,AT04IA,2023-08-23_12h21.33.855,openIAT,2023.1.3,MacIntel,62.5,
,,,,,,l,1,0.512,,,,,,,,,0.512,1,0,7,7,19,1,stimuli/blank.png,lustlos,l,AT04IA,2023-08-23_12h21.33.855,openIAT,2023.1.3,MacIntel,62.5,
,,,,,,a,1,0.531,,,,,,,,,0.531,1,0,8,8,5,1,stimuli/blank.png,meine,a,AT04IA,2023-08-23_12h21.33.855,openIAT,2023.1.3,MacIntel,62.5,
,,,,,,l,1,0.562,,,,,,,,,0.562,1,0,9,9,11,1,stimuli/blank.png,brutal,l,AT04IA,2023-08-23_12h21.33.855,openIAT,2023.1.3,MacIntel,62.5,
,,,,,,a,1,0.579,,,,,,,,,0.579,1,0,10,10,7,1,stimuli/blank.png,eigene,a,AT04IA,2023-08-23_12h21.33.855,openIAT,2023.1.3,MacIntel,62.5,
,,,,,,l,0,0.712,,,,,,,,,0.712,0,0,11,11,18,1,stimuli/blank.png,human,a,AT04IA,2023-08-23_12h21.33.855,openIAT,2023.1.3,MacIntel,62.5,
,,,,,,l,1,0.445,,,,,,,,,0.445,1,0,12,12,8,1,stimuli/blank.png,eure,l,AT04IA,2023-08-23_12h21.33.855,openIAT,2023.1.3,MacIntel,62.5,
,,,,,,a,1,0.819,,,,,,,,,0.819,1,0,13,13,9,1,stimuli/blank.png,selbst,a,AT04IA,2023-08-23_12h21.33.855,openIAT,2023.1.3,MacIntel,62.5,
,,,,,,l,1,1.2,,,,,,,,,1.2,1,0,14,14,2,1,stimuli/blank.png,ihr,l,AT04IA,2023-08-23_12h21.33.855,openIAT,2023.1.3,MacIntel,62.5,
,,,,,,a,1,0.815,,,,,,,,,0.815,1,0,15,15,10,1,stimuli/blank.png,aktiv,a,AT04IA,2023-08-23_12h21.33.855,openIAT,2023.1.3,MacIntel,62.5,
,,,,,,l,1,0.598,,,,,,,,,0.598,1,0,16,16,13,1,stimuli/blank.png,verlogen,l,AT04IA,2023-08-23_12h21.33.855,openIAT,2023.1.3,MacIntel,62.5,
,,,,,,a,1,0.562,,,,,,,,,0.562,1,0,17,17,3,1,stimuli/blank.png,mir,a,AT04IA,2023-08-23_12h21.33.855,openIAT,2023.1.3,MacIntel,62.5,
,,,,,,l,1,0.413,,,,,,,,,0.413,1,0,18,18,15,1,stimuli/blank.png,träge,l,AT04IA,2023-08-23_12h21.33.855,openIAT,2023.1.3,MacIntel,62.5,
,,,,,,a,1,0.495,,,,,,,,,0.495,1,0,19,19,12,1,stimuli/blank.png,fröhlich,a,AT04IA,2023-08-23_12h21.33.855,openIAT,2023.1.3,MacIntel,62.5,
,,,,,,l,1,0.801,,,,,,,,,0.801,1,0,0,0,11,1,stimuli/blank.png,brutal,l,AT04IA,2023-08-23_12h21.33.855,openIAT,2023.1.3,MacIntel,62.5,
,,,,,,a,1,0.463,,,,,,,,,0.463,1,0,1,1,3,1,stimuli/blank.png,mir,a,AT04IA,2023-08-23_12h21.33.855,openIAT,2023.1.3,MacIntel,62.5,
,,,,,,l,1,0.629,,,,,,,,,0.629,1,0,2,2,35,1,stimuli/blank.png,träge,l,AT04IA,2023-08-23_12h21.33.855,openIAT,2023.1.3,MacIntel,62.5,
,,,,,,l,1,0.496,,,,,,,,,0.496,1,0,3,3,28,1,stimuli/blank.png,eure,l,AT04IA,2023-08-23_12h21.33.855,openIAT,2023.1.3,MacIntel,62.5,
,,,,,,l,1,0.362,,,,,,,,,0.362,1,0,4,4,2,1,stimuli/blank.png,ihr,l,AT04IA,2023-08-23_12h21.33.855,openIAT,2023.1.3,MacIntel,62.5,
,,,,,,l,1,0.446,,,,,,,,,0.446,1,0,5,5,0,1,stimuli/blank.png,andere,l,AT04IA,2023-08-23_12h21.33.855,openIAT,2023.1.3,MacIntel,62.5,
,,,,,,l,0,0.647,,,,,,,,,0.647,0,0,6,6,36,1,stimuli/blank.png,begabt,a,AT04IA,2023-08-23_12h21.33.855,openIAT,2023.1.3,MacIntel,62.5,
,,,,,,l,1,0.515,,,,,,,,,0.515,1,0,7,7,6,1,stimuli/blank.png,euch,l,AT04IA,2023-08-23_12h21.33.855,openIAT,2023.1.3,MacIntel,62.5,
,,,,,,l,1,0.482,,,,,,,,,0.482,1,0,8,8,20,1,stimuli/blank.png,andere,l,AT04IA,2023-08-23_12h21.33.855,openIAT,2023.1.3,MacIntel,62.5,
,,,,,,a,1,0.647,,,,,,,,,0.647,1,0,9,9,18,1,stimuli/blank.png,human,a,AT04IA,2023-08-23_12h21.33.855,openIAT,2023.1.3,MacIntel,62.5,
,,,,,,a,1,0.563,,,,,,,,,0.563,1,0,10,10,9,1,stimuli/blank.png,selbst,a,AT04IA,2023-08-23_12h21.33.855,openIAT,2023.1.3,MacIntel,62.5,
,,,,,,a,1,0.485,,,,,,,,,0.485,1,0,11,11,12,1,stimuli/blank.png,fröhlich,a,AT04IA,2023-08-23_12h21.33.855,openIAT,2023.1.3,MacIntel,62.5,
,,,,,,l,1,0.496,,,,,,,,,0.496,1,0,12,12,4,1,stimuli/blank.png,jene,l,AT04IA,2023-08-23_12h21.33.855,openIAT,2023.1.3,MacIntel,62.5,
,,,,,,l,1,0.73,,,,,,,,,0.73,1,0,13,13,17,1,stimuli/blank.png,eitel,l,AT04IA,2023-08-23_12h21.33.855,openIAT,2023.1.3,MacIntel,62.5,
,,,,,,l,1,0.498,,,,,,,,,0.498,1,0,14,14,33,1,stimuli/blank.png,verlogen,l,AT04IA,2023-08-23_12h21.33.855,openIAT,2023.1.3,MacIntel,62.5,
,,,,,,a,1,0.597,,,,,,,,,0.597,1,0,15,15,10,1,stimuli/blank.png,aktiv,a,AT04IA,2023-08-23_12h21.33.855,openIAT,2023.1.3,MacIntel,62.5,
,,,,,,l,0,0.596,,,,,,,,,0.596,0,0,16,16,16,1,stimuli/blank.png,begabt,a,AT04IA,2023-08-23_12h21.33.855,openIAT,2023.1.3,MacIntel,62.5,
,,,,,,a,1,0.667,,,,,,,,,0.667,1,0,17,17,25,1,stimuli/blank.png,meine,a,AT04IA,2023-08-23_12h21.33.855,openIAT,2023.1.3,MacIntel,62.5,
,,,,,,a,0,0.597,,,,,,,,,0.597,0,0,18,18,13,1,stimuli/blank.png,verlogen,l,AT04IA,2023-08-23_12h21.33.855,openIAT,2023.1.3,MacIntel,62.5,
,,,,,,a,1,0.579,,,,,,,,,0.579,1,0,19,19,30,1,stimuli/blank.png,aktiv,a,AT04IA,2023-08-23_12h21.33.855,openIAT,2023.1.3,MacIntel,62.5,
,,,,,,a,1,0.533,,,,,,,,,0.533,1,0,20,20,5,1,stimuli/blank.png,meine,a,AT04IA,2023-08-23_12h21.33.855,openIAT,2023.1.3,MacIntel,62.5,
,,,,,,a,1,0.512,,,,,,,,,0.512,1,0,21,21,38,1,stimuli/blank.png,human,a,AT04IA,2023-08-23_12h21.33.855,openIAT,2023.1.3,MacIntel,62.5,
,,,,,,l,1,0.561,,,,,,,,,0.561,1,0,22,22,22,1,stimuli/blank.png,ihr,l,AT04IA,2023-08-23_12h21.33.855,openIAT,2023.1.3,MacIntel,62.5,
,,,,,,a,1,0.72,,,,,,,,,0.72,1,0,23,23,27,1,stimuli/blank.png,eigene,a,AT04IA,2023-08-23_12h21.33.855,openIAT,2023.1.3,MacIntel,62.5,
,,,,,,l,1,0.76,,,,,,,,,0.76,1,0,24,24,39,1,stimuli/blank.png,lustlos,l,AT04IA,2023-08-23_12h21.33.855,openIAT,2023.1.3,MacIntel,62.5,
,,,,,,l,1,0.564,,,,,,,,,0.564,1,0,25,25,31,1,stimuli/blank.png,brutal,l,AT04IA,2023-08-23_12h21.33.855,openIAT,2023.1.3,MacIntel,62.5,
,,,,,,a,1,0.511,,,,,,,,,0.511,1,0,26,26,1,1,stimuli/blank.png,ich,a,AT04IA,2023-08-23_12h21.33.855,openIAT,2023.1.3,MacIntel,62.5,
,,,,,,l,1,0.784,,,,,,,,,0.784,1,0,27,27,37,1,stimuli/blank.png,eitel,l,AT04IA,2023-08-23_12h21.33.855,openIAT,2023.1.3,MacIntel,62.5,
,,,,,,a,1,0.73,,,,,,,,,0.73,1,0,28,28,32,1,stimuli/blank.png,fröhlich,a,AT04IA,2023-08-23_12h21.33.855,openIAT,2023.1.3,MacIntel,62.5,
,,,,,,l,1,0.547,,,,,,,,,0.547,1,0,29,29,15,1,stimuli/blank.png,träge,l,AT04IA,2023-08-23_12h21.33.855,openIAT,2023.1.3,MacIntel,62.5,
,,,,,,l,1,0.496,,,,,,,,,0.496,1,0,30,30,26,1,stimuli/blank.png,euch,l,AT04IA,2023-08-23_12h21.33.855,openIAT,2023.1.3,MacIntel,62.5,
,,,,,,l,1,0.51,,,,,,,,,0.51,1,0,31,31,24,1,stimuli/blank.png,jene,l,AT04IA,2023-08-23_12h21.33.855,openIAT,2023.1.3,MacIntel,62.5,
,,,,,,a,1,0.646,,,,,,,,,0.646,1,0,32,32,23,1,stimuli/blank.png,mir,a,AT04IA,2023-08-23_12h21.33.855,openIAT,2023.1.3,MacIntel,62.5,
,,,,,,l,0,0.611,,,,,,,,,0.611,0,0,33,33,14,1,stimuli/blank.png,gerecht,a,AT04IA,2023-08-23_12h21.33.855,openIAT,2023.1.3,MacIntel,62.5,
,,,,,,a,1,0.667,,,,,,,,,0.667,1,0,34,34,34,1,stimuli/blank.png,gerecht,a,AT04IA,2023-08-23_12h21.33.855,openIAT,2023.1.3,MacIntel,62.5,
,,,,,,a,1,0.761,,,,,,,,,0.761,1,0,35,35,7,1,stimuli/blank.png,eigene,a,AT04IA,2023-08-23_12h21.33.855,openIAT,2023.1.3,MacIntel,62.5,
,,,,,,a,1,0.464,,,,,,,,,0.464,1,0,36,36,21,1,stimuli/blank.png,ich,a,AT04IA,2023-08-23_12h21.33.855,openIAT,2023.1.3,MacIntel,62.5,
,,,,,,l,1,0.635,,,,,,,,,0.635,1,0,37,37,19,1,stimuli/blank.png,lustlos,l,AT04IA,2023-08-23_12h21.33.855,openIAT,2023.1.3,MacIntel,62.5,
,,,,,,l,1,0.63,,,,,,,,,0.63,1,0,38,38,8,1,stimuli/blank.png,eure,l,AT04IA,2023-08-23_12h21.33.855,openIAT,2023.1.3,MacIntel,62.5,
,,,,,,a,1,0.679,,,,,,,,,0.679,1,0,39,39,29,1,stimuli/blank.png,selbst,a,AT04IA,2023-08-23_12h21.33.855,openIAT,2023.1.3,MacIntel,62.5,
,,,,,,l,1,1.511,,,,,,,,,1.511,1,0,0,0,19,1,stimuli/blank.png,selbst,l,AT04IA,2023-08-23_12h21.33.855,openIAT,2023.1.3,MacIntel,62.5,
,,,,,,l,0,0.349,,,,,,,,,0.349,0,0,1,1,12,1,stimuli/blank.png,ihr,a,AT04IA,2023-08-23_12h21.33.855,openIAT,2023.1.3,MacIntel,62.5,
,,,,,,l,1,0.63,,,,,,,,,0.63,1,0,2,2,9,1,stimuli/blank.png,selbst,l,AT04IA,2023-08-23_12h21.33.855,openIAT,2023.1.3,MacIntel,62.5,
,,,,,,l,1,0.484,,,,,,,,,0.484,1,0,3,3,5,1,stimuli/blank.png,meine,l,AT04IA,2023-08-23_12h21.33.855,openIAT,2023.1.3,MacIntel,62.5,
,,,,,,a,1,0.582,,,,,,,,,0.582,1,0,4,4,8,1,stimuli/blank.png,eure,a,AT04IA,2023-08-23_12h21.33.855,openIAT,2023.1.3,MacIntel,62.5,
,,,,,,l,1,0.595,,,,,,,,,0.595,1,0,5,5,13,1,stimuli/blank.png,mir,l,AT04IA,2023-08-23_12h21.33.855,openIAT,2023.1.3,MacIntel,62.5,
,,,,,,l,1,0.578,,,,,,,,,0.578,1,0,6,6,17,1,stimuli/blank.png,eigene,l,AT04IA,2023-08-23_12h21.33.855,openIAT,2023.1.3,MacIntel,62.5,
,,,,,,l,1,0.696,,,,,,,,,0.696,1,0,7,7,3,1,stimuli/blank.png,mir,l,AT04IA,2023-08-23_12h21.33.855,openIAT,2023.1.3,MacIntel,62.5,
,,,,,,a,1,0.829,,,,,,,,,0.829,1,0,8,8,18,1,stimuli/blank.png,eure,a,AT04IA,2023-08-23_12h21.33.855,openIAT,2023.1.3,MacIntel,62.5,
,,,,,,l,1,0.595,,,,,,,,,0.595,1,0,9,9,7,1,stimuli/blank.png,eigene,l,AT04IA,2023-08-23_12h21.33.855,openIAT,2023.1.3,MacIntel,62.5,
,,,,,,l,0,0.514,,,,,,,,,0.514,0,0,10,10,2,1,stimuli/blank.png,ihr,a,AT04IA,2023-08-23_12h21.33.855,openIAT,2023.1.3,MacIntel,62.5,
,,,,,,a,1,0.745,,,,,,,,,0.745,1,0,11,11,16,1,stimuli/blank.png,euch,a,AT04IA,2023-08-23_12h21.33.855,openIAT,2023.1.3,MacIntel,62.5,
,,,,,,a,1,0.534,,,,,,,,,0.534,1,0,12,12,6,1,stimuli/blank.png,euch,a,AT04IA,2023-08-23_12h21.33.855,openIAT,2023.1.3,MacIntel,62.5,
,,,,,,a,1,0.946,,,,,,,,,0.946,1,0,13,13,4,1,stimuli/blank.png,jene,a,AT04IA,2023-08-23_12h21.33.855,openIAT,2023.1.3,MacIntel,62.5,
,,,,,,a,1,0.63,,,,,,,,,0.63,1,0,14,14,0,1,stimuli/blank.png,andere,a,AT04IA,2023-08-23_12h21.33.855,openIAT,2023.1.3,MacIntel,62.5,
,,,,,,a,1,0.462,,,,,,,,,0.462,1,0,15,15,14,1,stimuli/blank.png,jene,a,AT04IA,2023-08-23_12h21.33.855,openIAT,2023.1.3,MacIntel,62.5,
,,,,,,l,1,0.545,,,,,,,,,0.545,1,0,16,16,15,1,stimuli/blank.png,meine,l,AT04IA,2023-08-23_12h21.33.855,openIAT,2023.1.3,MacIntel,62.5,
,,,,,,a,1,0.579,,,,,,,,,0.579,1,0,17,17,10,1,stimuli/blank.png,andere,a,AT04IA,2023-08-23_12h21.33.855,openIAT,2023.1.3,MacIntel,62.5,
,,,,,,l,1,0.431,,,,,,,,,0.431,1,0,18,18,11,1,stimuli/blank.png,ich,l,AT04IA,2023-08-23_12h21.33.855,openIAT,2023.1.3,MacIntel,62.5,
,,,,,,l,1,0.417,,,,,,,,,0.417,1,0,19,19,1,1,stimuli/blank.png,ich,l,AT04IA,2023-08-23_12h21.33.855,openIAT,2023.1.3,MacIntel,62.5,
,,,,,,l,1,1.359,,,,,,,,,1.359,1,0,0,0,1,1,stimuli/blank.png,ich,l,AT04IA,2023-08-23_12h21.33.855,openIAT,2023.1.3,MacIntel,62.5,
,,,,,,l,0,0.514,,,,,,,,,0.514,0,0,1,1,12,1,stimuli/blank.png,fröhlich,a,AT04IA,2023-08-23_12h21.33.855,openIAT,2023.1.3,MacIntel,62.5,
,,,,,,a,1,0.918,,,,,,,,,0.918,1,0,2,2,0,1,stimuli/blank.png,andere,a,AT04IA,2023-08-23_12h21.33.855,openIAT,2023.1.3,MacIntel,62.5,
,,,,,,a,1,0.697,,,,,,,,,0.697,1,0,3,3,14,1,stimuli/blank.png,gerecht,a,AT04IA,2023-08-23_12h21.33.855,openIAT,2023.1.3,MacIntel,62.5,
,,,,,,a,1,0.911,,,,,,,,,0.911,1,0,4,4,10,1,stimuli/blank.png,aktiv,a,AT04IA,2023-08-23_12h21.33.855,openIAT,2023.1.3,MacIntel,62.5,
,,,,,,a,1,0.83,,,,,,,,,0.83,1,0,5,5,4,1,stimuli/blank.png,jene,a,AT04IA,2023-08-23_12h21.33.855,openIAT,2023.1.3,MacIntel,62.5,
,,,,,,l,1,0.643,,,,,,,,,0.643,1,0,6,6,9,1,stimuli/blank.png,selbst,l,AT04IA,2023-08-23_12h21.33.855,openIAT,2023.1.3,MacIntel,62.5,
,,,,,,a,1,1.097,,,,,,,,,1.097,1,0,7,7,2,1,stimuli/blank.png,ihr,a,AT04IA,2023-08-23_12h21.33.855,openIAT,2023.1.3,MacIntel,62.5,
,,,,,,a,0,0.761,,,,,,,,,0.761,0,0,8,8,17,1,stimuli/blank.png,eitel,l,AT04IA,2023-08-23_12h21.33.855,openIAT,2023.1.3,MacIntel,62.5,
,,,,,,a,1,0.914,,,,,,,,,0.914,1,0,9,9,16,1,stimuli/blank.png,begabt,a,AT04IA,2023-08-23_12h21.33.855,openIAT,2023.1.3,MacIntel,62.5,
,,,,,,a,1,0.762,,,,,,,,,0.762,1,0,10,10,8,1,stimuli/blank.png,eure,a,AT04IA,2023-08-23_12h21.33.855,openIAT,2023.1.3,MacIntel,62.5,
,,,,,,a,1,0.403,,,,,,,,,0.403,1,0,11,11,6,1,stimuli/blank.png,euch,a,AT04IA,2023-08-23_12h21.33.855,openIAT,2023.1.3,MacIntel,62.5,
,,,,,,a,0,0.464,,,,,,,,,0.464,0,0,12,12,7,1,stimuli/blank.png,eigene,l,AT04IA,2023-08-23_12h21.33.855,openIAT,2023.1.3,MacIntel,62.5,
,,,,,,l,1,0.484,,,,,,,,,0.484,1,0,13,13,5,1,stimuli/blank.png,meine,l,AT04IA,2023-08-23_12h21.33.855,openIAT,2023.1.3,MacIntel,62.5,
,,,,,,a,0,0.866,,,,,,,,,0.866,0,0,14,14,11,1,stimuli/blank.png,brutal,l,AT04IA,2023-08-23_12h21.33.855,openIAT,2023.1.3,MacIntel,62.5,
,,,,,,l,1,1.229,,,,,,,,,1.229,1,0,15,15,13,1,stimuli/blank.png,verlogen,l,AT04IA,2023-08-23_12h21.33.855,openIAT,2023.1.3,MacIntel,62.5,
,,,,,,l,1,0.68,,,,,,,,,0.68,1,0,16,16,3,1,stimuli/blank.png,mir,l,AT04IA,2023-08-23_12h21.33.855,openIAT,2023.1.3,MacIntel,62.5,
,,,,,,l,1,0.647,,,,,,,,,0.647,1,0,17,17,15,1,stimuli/blank.png,träge,l,AT04IA,2023-08-23_12h21.33.855,openIAT,2023.1.3,MacIntel,62.5,
,,,,,,a,1,0.679,,,,,,,,,0.679,1,0,18,18,18,1,stimuli/blank.png,human,a,AT04IA,2023-08-23_12h21.33.855,openIAT,2023.1.3,MacIntel,62.5,
,,,,,,l,1,0.78,,,,,,,,,0.78,1,0,19,19,19,1,stimuli/blank.png,lustlos,l,AT04IA,2023-08-23_12h21.33.855,openIAT,2023.1.3,MacIntel,62.5,
,,,,,,l,1,3.179,,,,,,,,,3.179,1,0,0,0,21,1,stimuli/blank.png,ich,l,AT04IA,2023-08-23_12h21.33.855,openIAT,2023.1.3,MacIntel,62.5,
,,,,,,a,1,2.378,,,,,,,,,2.378,1,0,1,1,8,1,stimuli/blank.png,eure,a,AT04IA,2023-08-23_12h21.33.855,openIAT,2023.1.3,MacIntel,62.5,
,,,,,,l,1,0.997,,,,,,,,,0.997,1,0,2,2,9,1,stimuli/blank.png,selbst,l,AT04IA,2023-08-23_12h21.33.855,openIAT,2023.1.3,MacIntel,62.5,
,,,,,,l,1,1.262,,,,,,,,,1.262,1,0,3,3,17,1,stimuli/blank.png,eitel,l,AT04IA,2023-08-23_12h21.33.855,openIAT,2023.1.3,MacIntel,62.5,
,,,,,,l,1,0.732,,,,,,,,,0.732,1,0,4,4,7,1,stimuli/blank.png,eigene,l,AT04IA,2023-08-23_12h21.33.855,openIAT,2023.1.3,MacIntel,62.5,
,,,,,,a,1,0.68,,,,,,,,,0.68,1,0,5,5,16,1,stimuli/blank.png,begabt,a,AT04IA,2023-08-23_12h21.33.855,openIAT,2023.1.3,MacIntel,62.5,
,,,,,,l,0,0.564,,,,,,,,,0.564,0,0,6,6,26,1,stimuli/blank.png,euch,a,AT04IA,2023-08-23_12h21.33.855,openIAT,2023.1.3,MacIntel,62.5,
,,,,,,l,1,0.896,,,,,,,,,0.896,1,0,7,7,33,1,stimuli/blank.png,verlogen,l,AT04IA,2023-08-23_12h21.33.855,openIAT,2023.1.3,MacIntel,62.5,
,,,,,,l,1,0.531,,,,,,,,,0.531,1,0,8,8,31,1,stimuli/blank.png,brutal,l,AT04IA,2023-08-23_12h21.33.855,openIAT,2023.1.3,MacIntel,62.5,
,,,,,,a,1,0.796,,,,,,,,,0.796,1,0,9,9,18,1,stimuli/blank.png,human,a,AT04IA,2023-08-23_12h21.33.855,openIAT,2023.1.3,MacIntel,62.5,
,,,,,,l,1,0.645,,,,,,,,,0.645,1,0,10,10,11,1,stimuli/blank.png,brutal,l,AT04IA,2023-08-23_12h21.33.855,openIAT,2023.1.3,MacIntel,62.5,
,,,,,,l,1,0.528,,,,,,,,,0.528,1,0,11,11,37,1,stimuli/blank.png,eitel,l,AT04IA,2023-08-23_12h21.33.855,openIAT,2023.1.3,MacIntel,62.5,
,,,,,,l,1,0.562,,,,,,,,,0.562,1,0,12,12,27,1,stimuli/blank.png,eigene,l,AT04IA,2023-08-23_12h21.33.855,openIAT,2023.1.3,MacIntel,62.5,
,,,,,,l,1,0.512,,,,,,,,,0.512,1,0,13,13,25,1,stimuli/blank.png,meine,l,AT04IA,2023-08-23_12h21.33.855,openIAT,2023.1.3,MacIntel,62.5,
,,,,,,l,1,0.61,,,,,,,,,0.61,1,0,14,14,35,1,stimuli/blank.png,träge,l,AT04IA,2023-08-23_12h21.33.855,openIAT,2023.1.3,MacIntel,62.5,
,,,,,,a,1,0.728,,,,,,,,,0.728,1,0,15,15,24,1,stimuli/blank.png,jene,a,AT04IA,2023-08-23_12h21.33.855,openIAT,2023.1.3,MacIntel,62.5,
,,,,,,l,1,0.579,,,,,,,,,0.579,1,0,16,16,23,1,stimuli/blank.png,mir,l,AT04IA,2023-08-23_12h21.33.855,openIAT,2023.1.3,MacIntel,62.5,
,,,,,,l,0,0.835,,,,,,,,,0.835,0,0,17,17,10,1,stimuli/blank.png,aktiv,a,AT04IA,2023-08-23_12h21.33.855,openIAT,2023.1.3,MacIntel,62.5,
,,,,,,l,0,0.606,,,,,,,,,0.606,0,0,18,18,30,1,stimuli/blank.png,aktiv,a,AT04IA,2023-08-23_12h21.33.855,openIAT,2023.1.3,MacIntel,62.5,
,,,,,,l,1,0.578,,,,,,,,,0.578,1,0,19,19,29,1,stimuli/blank.png,selbst,l,AT04IA,2023-08-23_12h21.33.855,openIAT,2023.1.3,MacIntel,62.5,
,,,,,,l,1,0.546,,,,,,,,,0.546,1,0,20,20,3,1,stimuli/blank.png,mir,l,AT04IA,2023-08-23_12h21.33.855,openIAT,2023.1.3,MacIntel,62.5,
,,,,,,a,1,0.712,,,,,,,,,0.712,1,0,21,21,22,1,stimuli/blank.png,ihr,a,AT04IA,2023-08-23_12h21.33.855,openIAT,2023.1.3,MacIntel,62.5,
,,,,,,l,1,0.795,,,,,,,,,0.795,1,0,22,22,39,1,stimuli/blank.png,lustlos,l,AT04IA,2023-08-23_12h21.33.855,openIAT,2023.1.3,MacIntel,62.5,
,,,,,,a,1,0.88,,,,,,,,,0.88,1,0,23,23,14,1,stimuli/blank.png,gerecht,a,AT04IA,2023-08-23_12h21.33.855,openIAT,2023.1.3,MacIntel,62.5,
,,,,,,a,1,1.48,,,,,,,,,1.48,1,0,24,24,28,1,stimuli/blank.png,eure,a,AT04IA,2023-08-23_12h21.33.855,openIAT,2023.1.3,MacIntel,62.5,
,,,,,,l,0,0.77,,,,,,,,,0.77,0,0,25,25,2,1,stimuli/blank.png,ihr,a,AT04IA,2023-08-23_12h21.33.855,openIAT,2023.1.3,MacIntel,62.5,
,,,,,,a,1,0.696,,,,,,,,,0.696,1,0,26,26,20,1,stimuli/blank.png,andere,a,AT04IA,2023-08-23_12h21.33.855,openIAT,2023.1.3,MacIntel,62.5,
,,,,,,l,1,0.629,,,,,,,,,0.629,1,0,27,27,5,1,stimuli/blank.png,meine,l,AT04IA,2023-08-23_12h21.33.855,openIAT,2023.1.3,MacIntel,62.5,
,,,,,,l,1,0.562,,,,,,,,,0.562,1,0,28,28,1,1,stimuli/blank.png,ich,l,AT04IA,2023-08-23_12h21.33.855,openIAT,2023.1.3,MacIntel,62.5,
,,,,,,a,1,0.649,,,,,,,,,0.649,1,0,29,29,6,1,stimuli/blank.png,euch,a,AT04IA,2023-08-23_12h21.33.855,openIAT,2023.1.3,MacIntel,62.5,
,,,,,,a,1,0.728,,,,,,,,,0.728,1,0,30,30,4,1,stimuli/blank.png,jene,a,AT04IA,2023-08-23_12h21.33.855,openIAT,2023.1.3,MacIntel,62.5,
,,,,,,l,1,1.364,,,,,,,,,1.364,1,0,31,31,15,1,stimuli/blank.png,träge,l,AT04IA,2023-08-23_12h21.33.855,openIAT,2023.1.3,MacIntel,62.5,
,,,,,,l,1,0.876,,,,,,,,,0.876,1,0,32,32,13,1,stimuli/blank.png,verlogen,l,AT04IA,2023-08-23_12h21.33.855,openIAT,2023.1.3,MacIntel,62.5,
,,,,,,a,1,1.096,,,,,,,,,1.096,1,0,33,33,0,1,stimuli/blank.png,andere,a,AT04IA,2023-08-23_12h21.33.855,openIAT,2023.1.3,MacIntel,62.5,
,,,,,,a,1,0.646,,,,,,,,,0.646,1,0,34,34,32,1,stimuli/blank.png,fröhlich,a,AT04IA,2023-08-23_12h21.33.855,openIAT,2023.1.3,MacIntel,62.5,
,,,,,,a,1,0.946,,,,,,,,,0.946,1,0,35,35,36,1,stimuli/blank.png,begabt,a,AT04IA,2023-08-23_12h21.33.855,openIAT,2023.1.3,MacIntel,62.5,
,,,,,,a,1,0.861,,,,,,,,,0.861,1,0,36,36,34,1,stimuli/blank.png,gerecht,a,AT04IA,2023-08-23_12h21.33.855,openIAT,2023.1.3,MacIntel,62.5,
,,,,,,a,1,0.769,,,,,,,,,0.769,1,0,37,37,12,1,stimuli/blank.png,fröhlich,a,AT04IA,2023-08-23_12h21.33.855,openIAT,2023.1.3,MacIntel,62.5,
,,,,,,a,1,0.503,,,,,,,,,0.503,1,0,38,38,38,1,stimuli/blank.png,human,a,AT04IA,2023-08-23_12h21.33.855,openIAT,2023.1.3,MacIntel,62.5,
,,,,,,a,0,0.496,,,,,,,,,0.496,0,0,39,39,19,1,stimuli/blank.png,lustlos,l,AT04IA,2023-08-23_12h21.33.855,openIAT,2023.1.3,MacIntel,62.5,
,,,,,,,,,,,,,,,,,,,,,,,,,,,AT04IA,2023-08-23_12h21.33.855,openIAT,2023.1.3,MacIntel,62.5,
