instr_done_touch.x,instr_done_touch.y,instr_done_touch.leftButton,instr_done_touch.midButton,instr_done_touch.rightButton,instr_done_touch.clicked_name,key_resp.keys,key_resp.corr,key_resp.rt,key_resp.duration,touch_resp.x,touch_resp.y,touch_resp.leftButton,touch_resp.midButton,touch_resp.rightButton,touch_resp.time,touch_resp.clicked_name,rt,corr,trials.thisRepN,trials.thisTrialN,trials.thisN,trials.thisIndex,trials.ran,stimImage,stimWord,CorrAns,participant,date,expName,psychopyVersion,OS,frameRate,return_tic
-0.031111111,-0.401111111,1,0,0,instr_done_button,l,1,1.238,,,,,,,,,1.238,1,0,0,0,1,1,stimuli/blank.png,brutal,l,BT08RL,2023-08-16_16h41.38.950,openIAT,2023.1.3,MacIntel,62.5,
,,,,,,a,1,0.413,,,,,,,,,0.413,1,0,1,1,8,1,stimuli/blank.png,human,a,BT08RL,2023-08-16_16h41.38.950,openIAT,2023.1.3,MacIntel,62.5,
,,,,,,a,1,0.914,,,,,,,,,0.914,1,0,2,2,16,1,stimuli/blank.png,begabt,a,BT08RL,2023-08-16_16h41.38.950,openIAT,2023.1.3,MacIntel,62.5,
,,,,,,a,1,0.746,,,,,,,,,0.746,1,0,3,3,18,1,stimuli/blank.png,human,a,BT08RL,2023-08-16_16h41.38.950,openIAT,2023.1.3,MacIntel,62.5,
,,,,,,a,1,0.722,,,,,,,,,0.722,1,0,4,4,10,1,stimuli/blank.png,aktiv,a,BT08RL,2023-08-16_16h41.38.950,openIAT,2023.1.3,MacIntel,62.5,
,,,,,,l,1,0.684,,,,,,,,,0.684,1,0,5,5,19,1,stimuli/blank.png,lustlos,l,BT08RL,2023-08-16_16h41.38.950,openIAT,2023.1.3,MacIntel,62.5,
,,,,,,l,1,0.716,,,,,,,,,0.716,1,0,6,6,15,1,stimuli/blank.png,träge,l,BT08RL,2023-08-16_16h41.38.950,openIAT,2023.1.3,MacIntel,62.5,
,,,,,,a,0,0.581,,,,,,,,,0.581,0,0,7,7,17,1,stimuli/blank.png,eitel,l,BT08RL,2023-08-16_16h41.38.950,openIAT,2023.1.3,MacIntel,62.5,
,,,,,,a,1,1.017,,,,,,,,,1.017,1,0,8,8,14,1,stimuli/blank.png,gerecht,a,BT08RL,2023-08-16_16h41.38.950,openIAT,2023.1.3,MacIntel,62.5,
,,,,,,l,1,0.737,,,,,,,,,0.737,1,0,9,9,3,1,stimuli/blank.png,verlogen,l,BT08RL,2023-08-16_16h41.38.950,openIAT,2023.1.3,MacIntel,62.5,
,,,,,,a,1,0.678,,,,,,,,,0.678,1,0,10,10,6,1,stimuli/blank.png,begabt,a,BT08RL,2023-08-16_16h41.38.950,openIAT,2023.1.3,MacIntel,62.5,
,,,,,,l,1,0.632,,,,,,,,,0.632,1,0,11,11,5,1,stimuli/blank.png,träge,l,BT08RL,2023-08-16_16h41.38.950,openIAT,2023.1.3,MacIntel,62.5,
,,,,,,a,1,0.579,,,,,,,,,0.579,1,0,12,12,0,1,stimuli/blank.png,aktiv,a,BT08RL,2023-08-16_16h41.38.950,openIAT,2023.1.3,MacIntel,62.5,
,,,,,,a,1,0.595,,,,,,,,,0.595,1,0,13,13,2,1,stimuli/blank.png,fröhlich,a,BT08RL,2023-08-16_16h41.38.950,openIAT,2023.1.3,MacIntel,62.5,
,,,,,,l,1,0.479,,,,,,,,,0.479,1,0,14,14,9,1,stimuli/blank.png,lustlos,l,BT08RL,2023-08-16_16h41.38.950,openIAT,2023.1.3,MacIntel,62.5,
,,,,,,a,1,0.668,,,,,,,,,0.668,1,0,15,15,4,1,stimuli/blank.png,gerecht,a,BT08RL,2023-08-16_16h41.38.950,openIAT,2023.1.3,MacIntel,62.5,
,,,,,,a,1,0.567,,,,,,,,,0.567,1,0,16,16,12,1,stimuli/blank.png,fröhlich,a,BT08RL,2023-08-16_16h41.38.950,openIAT,2023.1.3,MacIntel,62.5,
,,,,,,a,0,0.796,,,,,,,,,0.796,0,0,17,17,7,1,stimuli/blank.png,eitel,l,BT08RL,2023-08-16_16h41.38.950,openIAT,2023.1.3,MacIntel,62.5,
,,,,,,l,1,1.081,,,,,,,,,1.081,1,0,18,18,13,1,stimuli/blank.png,verlogen,l,BT08RL,2023-08-16_16h41.38.950,openIAT,2023.1.3,MacIntel,62.5,
,,,,,,l,1,0.904,,,,,,,,,0.904,1,0,19,19,11,1,stimuli/blank.png,brutal,l,BT08RL,2023-08-16_16h41.38.950,openIAT,2023.1.3,MacIntel,62.5,
,,,,,,l,1,1.091,,,,,,,,,1.091,1,0,0,0,12,1,stimuli/blank.png,ihr,l,BT08RL,2023-08-16_16h41.38.950,openIAT,2023.1.3,MacIntel,62.5,
,,,,,,a,1,0.696,,,,,,,,,0.696,1,0,1,1,17,1,stimuli/blank.png,eigene,a,BT08RL,2023-08-16_16h41.38.950,openIAT,2023.1.3,MacIntel,62.5,
,,,,,,l,1,0.963,,,,,,,,,0.963,1,0,2,2,14,1,stimuli/blank.png,jene,l,BT08RL,2023-08-16_16h41.38.950,openIAT,2023.1.3,MacIntel,62.5,
,,,,,,l,1,0.696,,,,,,,,,0.696,1,0,3,3,6,1,stimuli/blank.png,euch,l,BT08RL,2023-08-16_16h41.38.950,openIAT,2023.1.3,MacIntel,62.5,
,,,,,,a,1,0.6,,,,,,,,,0.6,1,0,4,4,5,1,stimuli/blank.png,meine,a,BT08RL,2023-08-16_16h41.38.950,openIAT,2023.1.3,MacIntel,62.5,
,,,,,,l,1,0.555,,,,,,,,,0.555,1,0,5,5,18,1,stimuli/blank.png,eure,l,BT08RL,2023-08-16_16h41.38.950,openIAT,2023.1.3,MacIntel,62.5,
,,,,,,a,1,0.712,,,,,,,,,0.712,1,0,6,6,9,1,stimuli/blank.png,selbst,a,BT08RL,2023-08-16_16h41.38.950,openIAT,2023.1.3,MacIntel,62.5,
,,,,,,a,1,0.649,,,,,,,,,0.649,1,0,7,7,11,1,stimuli/blank.png,ich,a,BT08RL,2023-08-16_16h41.38.950,openIAT,2023.1.3,MacIntel,62.5,
,,,,,,a,1,0.664,,,,,,,,,0.664,1,0,8,8,19,1,stimuli/blank.png,selbst,a,BT08RL,2023-08-16_16h41.38.950,openIAT,2023.1.3,MacIntel,62.5,
,,,,,,l,1,0.579,,,,,,,,,0.579,1,0,9,9,16,1,stimuli/blank.png,euch,l,BT08RL,2023-08-16_16h41.38.950,openIAT,2023.1.3,MacIntel,62.5,
,,,,,,a,1,0.598,,,,,,,,,0.598,1,0,10,10,13,1,stimuli/blank.png,mir,a,BT08RL,2023-08-16_16h41.38.950,openIAT,2023.1.3,MacIntel,62.5,
,,,,,,a,1,0.587,,,,,,,,,0.587,1,0,11,11,7,1,stimuli/blank.png,eigene,a,BT08RL,2023-08-16_16h41.38.950,openIAT,2023.1.3,MacIntel,62.5,
,,,,,,a,1,0.623,,,,,,,,,0.623,1,0,12,12,3,1,stimuli/blank.png,mir,a,BT08RL,2023-08-16_16h41.38.950,openIAT,2023.1.3,MacIntel,62.5,
,,,,,,l,1,0.503,,,,,,,,,0.503,1,0,13,13,10,1,stimuli/blank.png,andere,l,BT08RL,2023-08-16_16h41.38.950,openIAT,2023.1.3,MacIntel,62.5,
,,,,,,a,1,0.562,,,,,,,,,0.562,1,0,14,14,15,1,stimuli/blank.png,meine,a,BT08RL,2023-08-16_16h41.38.950,openIAT,2023.1.3,MacIntel,62.5,
,,,,,,l,1,0.523,,,,,,,,,0.523,1,0,15,15,8,1,stimuli/blank.png,eure,l,BT08RL,2023-08-16_16h41.38.950,openIAT,2023.1.3,MacIntel,62.5,
,,,,,,a,0,0.555,,,,,,,,,0.555,0,0,16,16,2,1,stimuli/blank.png,ihr,l,BT08RL,2023-08-16_16h41.38.950,openIAT,2023.1.3,MacIntel,62.5,
,,,,,,l,1,0.813,,,,,,,,,0.813,1,0,17,17,4,1,stimuli/blank.png,jene,l,BT08RL,2023-08-16_16h41.38.950,openIAT,2023.1.3,MacIntel,62.5,
,,,,,,l,1,0.508,,,,,,,,,0.508,1,0,18,18,0,1,stimuli/blank.png,andere,l,BT08RL,2023-08-16_16h41.38.950,openIAT,2023.1.3,MacIntel,62.5,
,,,,,,a,1,0.665,,,,,,,,,0.665,1,0,19,19,1,1,stimuli/blank.png,ich,a,BT08RL,2023-08-16_16h41.38.950,openIAT,2023.1.3,MacIntel,62.5,
,,,,,,l,1,0.973,,,,,,,,,0.973,1,0,0,0,4,1,stimuli/blank.png,jene,l,BT08RL,2023-08-16_16h41.38.950,openIAT,2023.1.3,MacIntel,62.5,
,,,,,,l,1,0.814,,,,,,,,,0.814,1,0,1,1,0,1,stimuli/blank.png,andere,l,BT08RL,2023-08-16_16h41.38.950,openIAT,2023.1.3,MacIntel,62.5,
,,,,,,a,1,0.885,,,,,,,,,0.885,1,0,2,2,18,1,stimuli/blank.png,human,a,BT08RL,2023-08-16_16h41.38.950,openIAT,2023.1.3,MacIntel,62.5,
,,,,,,l,1,1.432,,,,,,,,,1.432,1,0,3,3,15,1,stimuli/blank.png,träge,l,BT08RL,2023-08-16_16h41.38.950,openIAT,2023.1.3,MacIntel,62.5,
,,,,,,a,1,0.678,,,,,,,,,0.678,1,0,4,4,16,1,stimuli/blank.png,begabt,a,BT08RL,2023-08-16_16h41.38.950,openIAT,2023.1.3,MacIntel,62.5,
,,,,,,l,1,0.569,,,,,,,,,0.569,1,0,5,5,6,1,stimuli/blank.png,euch,l,BT08RL,2023-08-16_16h41.38.950,openIAT,2023.1.3,MacIntel,62.5,
,,,,,,l,1,0.649,,,,,,,,,0.649,1,0,6,6,19,1,stimuli/blank.png,lustlos,l,BT08RL,2023-08-16_16h41.38.950,openIAT,2023.1.3,MacIntel,62.5,
,,,,,,l,1,0.719,,,,,,,,,0.719,1,0,7,7,13,1,stimuli/blank.png,verlogen,l,BT08RL,2023-08-16_16h41.38.950,openIAT,2023.1.3,MacIntel,62.5,
,,,,,,l,1,0.958,,,,,,,,,0.958,1,0,8,8,8,1,stimuli/blank.png,eure,l,BT08RL,2023-08-16_16h41.38.950,openIAT,2023.1.3,MacIntel,62.5,
,,,,,,a,1,0.587,,,,,,,,,0.587,1,0,9,9,5,1,stimuli/blank.png,meine,a,BT08RL,2023-08-16_16h41.38.950,openIAT,2023.1.3,MacIntel,62.5,
,,,,,,a,1,0.54,,,,,,,,,0.54,1,0,10,10,3,1,stimuli/blank.png,mir,a,BT08RL,2023-08-16_16h41.38.950,openIAT,2023.1.3,MacIntel,62.5,
,,,,,,a,1,0.804,,,,,,,,,0.804,1,0,11,11,14,1,stimuli/blank.png,gerecht,a,BT08RL,2023-08-16_16h41.38.950,openIAT,2023.1.3,MacIntel,62.5,
,,,,,,a,1,0.968,,,,,,,,,0.968,1,0,12,12,9,1,stimuli/blank.png,selbst,a,BT08RL,2023-08-16_16h41.38.950,openIAT,2023.1.3,MacIntel,62.5,
,,,,,,l,1,0.681,,,,,,,,,0.681,1,0,13,13,17,1,stimuli/blank.png,eitel,l,BT08RL,2023-08-16_16h41.38.950,openIAT,2023.1.3,MacIntel,62.5,
,,,,,,a,1,0.596,,,,,,,,,0.596,1,0,14,14,7,1,stimuli/blank.png,eigene,a,BT08RL,2023-08-16_16h41.38.950,openIAT,2023.1.3,MacIntel,62.5,
,,,,,,l,1,0.512,,,,,,,,,0.512,1,0,15,15,11,1,stimuli/blank.png,brutal,l,BT08RL,2023-08-16_16h41.38.950,openIAT,2023.1.3,MacIntel,62.5,
,,,,,,a,1,0.522,,,,,,,,,0.522,1,0,16,16,12,1,stimuli/blank.png,fröhlich,a,BT08RL,2023-08-16_16h41.38.950,openIAT,2023.1.3,MacIntel,62.5,
,,,,,,a,1,0.489,,,,,,,,,0.489,1,0,17,17,1,1,stimuli/blank.png,ich,a,BT08RL,2023-08-16_16h41.38.950,openIAT,2023.1.3,MacIntel,62.5,
,,,,,,a,1,0.586,,,,,,,,,0.586,1,0,18,18,10,1,stimuli/blank.png,aktiv,a,BT08RL,2023-08-16_16h41.38.950,openIAT,2023.1.3,MacIntel,62.5,
,,,,,,l,1,0.447,,,,,,,,,0.447,1,0,19,19,2,1,stimuli/blank.png,ihr,l,BT08RL,2023-08-16_16h41.38.950,openIAT,2023.1.3,MacIntel,62.5,
,,,,,,l,1,1.303,,,,,,,,,1.303,1,0,0,0,11,1,stimuli/blank.png,brutal,l,BT08RL,2023-08-16_16h41.38.950,openIAT,2023.1.3,MacIntel,62.5,
,,,,,,a,1,0.545,,,,,,,,,0.545,1,0,1,1,18,1,stimuli/blank.png,human,a,BT08RL,2023-08-16_16h41.38.950,openIAT,2023.1.3,MacIntel,62.5,
,,,,,,l,1,0.571,,,,,,,,,0.571,1,0,2,2,28,1,stimuli/blank.png,eure,l,BT08RL,2023-08-16_16h41.38.950,openIAT,2023.1.3,MacIntel,62.5,
,,,,,,a,1,1.023,,,,,,,,,1.023,1,0,3,3,14,1,stimuli/blank.png,gerecht,a,BT08RL,2023-08-16_16h41.38.950,openIAT,2023.1.3,MacIntel,62.5,
,,,,,,a,1,0.533,,,,,,,,,0.533,1,0,4,4,34,1,stimuli/blank.png,gerecht,a,BT08RL,2023-08-16_16h41.38.950,openIAT,2023.1.3,MacIntel,62.5,
,,,,,,a,1,0.532,,,,,,,,,0.532,1,0,5,5,23,1,stimuli/blank.png,mir,a,BT08RL,2023-08-16_16h41.38.950,openIAT,2023.1.3,MacIntel,62.5,
,,,,,,l,1,0.829,,,,,,,,,0.829,1,0,6,6,4,1,stimuli/blank.png,jene,l,BT08RL,2023-08-16_16h41.38.950,openIAT,2023.1.3,MacIntel,62.5,
,,,,,,l,1,0.839,,,,,,,,,0.839,1,0,7,7,19,1,stimuli/blank.png,lustlos,l,BT08RL,2023-08-16_16h41.38.950,openIAT,2023.1.3,MacIntel,62.5,
,,,,,,a,1,0.653,,,,,,,,,0.653,1,0,8,8,16,1,stimuli/blank.png,begabt,a,BT08RL,2023-08-16_16h41.38.950,openIAT,2023.1.3,MacIntel,62.5,
,,,,,,l,1,0.547,,,,,,,,,0.547,1,0,9,9,31,1,stimuli/blank.png,brutal,l,BT08RL,2023-08-16_16h41.38.950,openIAT,2023.1.3,MacIntel,62.5,
,,,,,,a,1,0.613,,,,,,,,,0.613,1,0,10,10,25,1,stimuli/blank.png,meine,a,BT08RL,2023-08-16_16h41.38.950,openIAT,2023.1.3,MacIntel,62.5,
,,,,,,a,1,0.545,,,,,,,,,0.545,1,0,11,11,29,1,stimuli/blank.png,selbst,a,BT08RL,2023-08-16_16h41.38.950,openIAT,2023.1.3,MacIntel,62.5,
,,,,,,l,1,0.554,,,,,,,,,0.554,1,0,12,12,0,1,stimuli/blank.png,andere,l,BT08RL,2023-08-16_16h41.38.950,openIAT,2023.1.3,MacIntel,62.5,
,,,,,,a,1,0.513,,,,,,,,,0.513,1,0,13,13,30,1,stimuli/blank.png,aktiv,a,BT08RL,2023-08-16_16h41.38.950,openIAT,2023.1.3,MacIntel,62.5,
,,,,,,a,1,0.73,,,,,,,,,0.73,1,0,14,14,12,1,stimuli/blank.png,fröhlich,a,BT08RL,2023-08-16_16h41.38.950,openIAT,2023.1.3,MacIntel,62.5,
,,,,,,l,1,0.596,,,,,,,,,0.596,1,0,15,15,2,1,stimuli/blank.png,ihr,l,BT08RL,2023-08-16_16h41.38.950,openIAT,2023.1.3,MacIntel,62.5,
,,,,,,a,1,0.54,,,,,,,,,0.54,1,0,16,16,5,1,stimuli/blank.png,meine,a,BT08RL,2023-08-16_16h41.38.950,openIAT,2023.1.3,MacIntel,62.5,
,,,,,,l,1,0.532,,,,,,,,,0.532,1,0,17,17,22,1,stimuli/blank.png,ihr,l,BT08RL,2023-08-16_16h41.38.950,openIAT,2023.1.3,MacIntel,62.5,
,,,,,,a,1,0.558,,,,,,,,,0.558,1,0,18,18,9,1,stimuli/blank.png,selbst,a,BT08RL,2023-08-16_16h41.38.950,openIAT,2023.1.3,MacIntel,62.5,
,,,,,,l,1,0.513,,,,,,,,,0.513,1,0,19,19,33,1,stimuli/blank.png,verlogen,l,BT08RL,2023-08-16_16h41.38.950,openIAT,2023.1.3,MacIntel,62.5,
,,,,,,a,1,0.531,,,,,,,,,0.531,1,0,20,20,3,1,stimuli/blank.png,mir,a,BT08RL,2023-08-16_16h41.38.950,openIAT,2023.1.3,MacIntel,62.5,
,,,,,,l,1,0.78,,,,,,,,,0.78,1,0,21,21,17,1,stimuli/blank.png,eitel,l,BT08RL,2023-08-16_16h41.38.950,openIAT,2023.1.3,MacIntel,62.5,
,,,,,,a,1,0.535,,,,,,,,,0.535,1,0,22,22,38,1,stimuli/blank.png,human,a,BT08RL,2023-08-16_16h41.38.950,openIAT,2023.1.3,MacIntel,62.5,
,,,,,,a,1,0.514,,,,,,,,,0.514,1,0,23,23,21,1,stimuli/blank.png,ich,a,BT08RL,2023-08-16_16h41.38.950,openIAT,2023.1.3,MacIntel,62.5,
,,,,,,l,0,0.597,,,,,,,,,0.597,0,0,24,24,27,1,stimuli/blank.png,eigene,a,BT08RL,2023-08-16_16h41.38.950,openIAT,2023.1.3,MacIntel,62.5,
,,,,,,l,1,0.664,,,,,,,,,0.664,1,0,25,25,6,1,stimuli/blank.png,euch,l,BT08RL,2023-08-16_16h41.38.950,openIAT,2023.1.3,MacIntel,62.5,
,,,,,,a,1,0.581,,,,,,,,,0.581,1,0,26,26,1,1,stimuli/blank.png,ich,a,BT08RL,2023-08-16_16h41.38.950,openIAT,2023.1.3,MacIntel,62.5,
,,,,,,a,1,0.68,,,,,,,,,0.68,1,0,27,27,36,1,stimuli/blank.png,begabt,a,BT08RL,2023-08-16_16h41.38.950,openIAT,2023.1.3,MacIntel,62.5,
,,,,,,a,1,0.602,,,,,,,,,0.602,1,0,28,28,32,1,stimuli/blank.png,fröhlich,a,BT08RL,2023-08-16_16h41.38.950,openIAT,2023.1.3,MacIntel,62.5,
,,,,,,a,1,0.961,,,,,,,,,0.961,1,0,29,29,7,1,stimuli/blank.png,eigene,a,BT08RL,2023-08-16_16h41.38.950,openIAT,2023.1.3,MacIntel,62.5,
,,,,,,l,1,0.611,,,,,,,,,0.611,1,0,30,30,20,1,stimuli/blank.png,andere,l,BT08RL,2023-08-16_16h41.38.950,openIAT,2023.1.3,MacIntel,62.5,
,,,,,,l,1,0.948,,,,,,,,,0.948,1,0,31,31,26,1,stimuli/blank.png,euch,l,BT08RL,2023-08-16_16h41.38.950,openIAT,2023.1.3,MacIntel,62.5,
,,,,,,l,1,1.37,,,,,,,,,1.37,1,0,32,32,8,1,stimuli/blank.png,eure,l,BT08RL,2023-08-16_16h41.38.950,openIAT,2023.1.3,MacIntel,62.5,
,,,,,,l,1,0.672,,,,,,,,,0.672,1,0,33,33,24,1,stimuli/blank.png,jene,l,BT08RL,2023-08-16_16h41.38.950,openIAT,2023.1.3,MacIntel,62.5,
,,,,,,l,1,0.73,,,,,,,,,0.73,1,0,34,34,39,1,stimuli/blank.png,lustlos,l,BT08RL,2023-08-16_16h41.38.950,openIAT,2023.1.3,MacIntel,62.5,
,,,,,,l,1,0.697,,,,,,,,,0.697,1,0,35,35,37,1,stimuli/blank.png,eitel,l,BT08RL,2023-08-16_16h41.38.950,openIAT,2023.1.3,MacIntel,62.5,
,,,,,,a,1,0.603,,,,,,,,,0.603,1,0,36,36,10,1,stimuli/blank.png,aktiv,a,BT08RL,2023-08-16_16h41.38.950,openIAT,2023.1.3,MacIntel,62.5,
,,,,,,l,1,0.531,,,,,,,,,0.531,1,0,37,37,15,1,stimuli/blank.png,träge,l,BT08RL,2023-08-16_16h41.38.950,openIAT,2023.1.3,MacIntel,62.5,
,,,,,,l,1,0.647,,,,,,,,,0.647,1,0,38,38,13,1,stimuli/blank.png,verlogen,l,BT08RL,2023-08-16_16h41.38.950,openIAT,2023.1.3,MacIntel,62.5,
,,,,,,l,1,0.646,,,,,,,,,0.646,1,0,39,39,35,1,stimuli/blank.png,träge,l,BT08RL,2023-08-16_16h41.38.950,openIAT,2023.1.3,MacIntel,62.5,
,,,,,,a,1,1.46,,,,,,,,,1.46,1,0,0,0,14,1,stimuli/blank.png,jene,a,BT08RL,2023-08-16_16h41.38.950,openIAT,2023.1.3,MacIntel,62.5,
,,,,,,l,1,0.598,,,,,,,,,0.598,1,0,1,1,11,1,stimuli/blank.png,ich,l,BT08RL,2023-08-16_16h41.38.950,openIAT,2023.1.3,MacIntel,62.5,
,,,,,,a,1,0.87,,,,,,,,,0.87,1,0,2,2,6,1,stimuli/blank.png,euch,a,BT08RL,2023-08-16_16h41.38.950,openIAT,2023.1.3,MacIntel,62.5,
,,,,,,l,1,0.834,,,,,,,,,0.834,1,0,3,3,7,1,stimuli/blank.png,eigene,l,BT08RL,2023-08-16_16h41.38.950,openIAT,2023.1.3,MacIntel,62.5,
,,,,,,l,1,0.595,,,,,,,,,0.595,1,0,4,4,15,1,stimuli/blank.png,meine,l,BT08RL,2023-08-16_16h41.38.950,openIAT,2023.1.3,MacIntel,62.5,
,,,,,,a,1,0.613,,,,,,,,,0.613,1,0,5,5,12,1,stimuli/blank.png,ihr,a,BT08RL,2023-08-16_16h41.38.950,openIAT,2023.1.3,MacIntel,62.5,
,,,,,,l,1,0.546,,,,,,,,,0.546,1,0,6,6,19,1,stimuli/blank.png,selbst,l,BT08RL,2023-08-16_16h41.38.950,openIAT,2023.1.3,MacIntel,62.5,
,,,,,,a,1,0.531,,,,,,,,,0.531,1,0,7,7,8,1,stimuli/blank.png,eure,a,BT08RL,2023-08-16_16h41.38.950,openIAT,2023.1.3,MacIntel,62.5,
,,,,,,a,1,0.513,,,,,,,,,0.513,1,0,8,8,10,1,stimuli/blank.png,andere,a,BT08RL,2023-08-16_16h41.38.950,openIAT,2023.1.3,MacIntel,62.5,
,,,,,,l,1,0.534,,,,,,,,,0.534,1,0,9,9,5,1,stimuli/blank.png,meine,l,BT08RL,2023-08-16_16h41.38.950,openIAT,2023.1.3,MacIntel,62.5,
,,,,,,l,1,0.497,,,,,,,,,0.497,1,0,10,10,3,1,stimuli/blank.png,mir,l,BT08RL,2023-08-16_16h41.38.950,openIAT,2023.1.3,MacIntel,62.5,
,,,,,,a,1,0.517,,,,,,,,,0.517,1,0,11,11,4,1,stimuli/blank.png,jene,a,BT08RL,2023-08-16_16h41.38.950,openIAT,2023.1.3,MacIntel,62.5,
,,,,,,a,1,0.553,,,,,,,,,0.553,1,0,12,12,0,1,stimuli/blank.png,andere,a,BT08RL,2023-08-16_16h41.38.950,openIAT,2023.1.3,MacIntel,62.5,
,,,,,,a,1,0.508,,,,,,,,,0.508,1,0,13,13,16,1,stimuli/blank.png,euch,a,BT08RL,2023-08-16_16h41.38.950,openIAT,2023.1.3,MacIntel,62.5,
,,,,,,l,1,0.48,,,,,,,,,0.48,1,0,14,14,13,1,stimuli/blank.png,mir,l,BT08RL,2023-08-16_16h41.38.950,openIAT,2023.1.3,MacIntel,62.5,
,,,,,,a,1,0.556,,,,,,,,,0.556,1,0,15,15,18,1,stimuli/blank.png,eure,a,BT08RL,2023-08-16_16h41.38.950,openIAT,2023.1.3,MacIntel,62.5,
,,,,,,l,0,0.499,,,,,,,,,0.499,0,0,16,16,2,1,stimuli/blank.png,ihr,a,BT08RL,2023-08-16_16h41.38.950,openIAT,2023.1.3,MacIntel,62.5,
,,,,,,l,1,0.698,,,,,,,,,0.698,1,0,17,17,1,1,stimuli/blank.png,ich,l,BT08RL,2023-08-16_16h41.38.950,openIAT,2023.1.3,MacIntel,62.5,
,,,,,,l,1,0.558,,,,,,,,,0.558,1,0,18,18,9,1,stimuli/blank.png,selbst,l,BT08RL,2023-08-16_16h41.38.950,openIAT,2023.1.3,MacIntel,62.5,
,,,,,,l,1,0.972,,,,,,,,,0.972,1,0,19,19,17,1,stimuli/blank.png,eigene,l,BT08RL,2023-08-16_16h41.38.950,openIAT,2023.1.3,MacIntel,62.5,
,,,,,,l,1,1.275,,,,,,,,,1.275,1,0,0,0,13,1,stimuli/blank.png,verlogen,l,BT08RL,2023-08-16_16h41.38.950,openIAT,2023.1.3,MacIntel,62.5,
,,,,,,a,1,0.916,,,,,,,,,0.916,1,0,1,1,16,1,stimuli/blank.png,begabt,a,BT08RL,2023-08-16_16h41.38.950,openIAT,2023.1.3,MacIntel,62.5,
,,,,,,a,1,0.552,,,,,,,,,0.552,1,0,2,2,8,1,stimuli/blank.png,eure,a,BT08RL,2023-08-16_16h41.38.950,openIAT,2023.1.3,MacIntel,62.5,
,,,,,,a,0,1.131,,,,,,,,,1.131,0,0,3,3,17,1,stimuli/blank.png,eitel,l,BT08RL,2023-08-16_16h41.38.950,openIAT,2023.1.3,MacIntel,62.5,
,,,,,,a,1,1.581,,,,,,,,,1.581,1,0,4,4,14,1,stimuli/blank.png,gerecht,a,BT08RL,2023-08-16_16h41.38.950,openIAT,2023.1.3,MacIntel,62.5,
,,,,,,a,1,1.114,,,,,,,,,1.114,1,0,5,5,4,1,stimuli/blank.png,jene,a,BT08RL,2023-08-16_16h41.38.950,openIAT,2023.1.3,MacIntel,62.5,
,,,,,,a,1,0.633,,,,,,,,,0.633,1,0,6,6,6,1,stimuli/blank.png,euch,a,BT08RL,2023-08-16_16h41.38.950,openIAT,2023.1.3,MacIntel,62.5,
,,,,,,a,0,0.831,,,,,,,,,0.831,0,0,7,7,19,1,stimuli/blank.png,lustlos,l,BT08RL,2023-08-16_16h41.38.950,openIAT,2023.1.3,MacIntel,62.5,
,,,,,,l,1,1.124,,,,,,,,,1.124,1,0,8,8,3,1,stimuli/blank.png,mir,l,BT08RL,2023-08-16_16h41.38.950,openIAT,2023.1.3,MacIntel,62.5,
,,,,,,a,1,1.363,,,,,,,,,1.363,1,0,9,9,12,1,stimuli/blank.png,fröhlich,a,BT08RL,2023-08-16_16h41.38.950,openIAT,2023.1.3,MacIntel,62.5,
,,,,,,l,1,0.663,,,,,,,,,0.663,1,0,10,10,9,1,stimuli/blank.png,selbst,l,BT08RL,2023-08-16_16h41.38.950,openIAT,2023.1.3,MacIntel,62.5,
,,,,,,l,1,1.479,,,,,,,,,1.479,1,0,11,11,11,1,stimuli/blank.png,brutal,l,BT08RL,2023-08-16_16h41.38.950,openIAT,2023.1.3,MacIntel,62.5,
,,,,,,a,1,0.978,,,,,,,,,0.978,1,0,12,12,0,1,stimuli/blank.png,andere,a,BT08RL,2023-08-16_16h41.38.950,openIAT,2023.1.3,MacIntel,62.5,
,,,,,,l,1,0.871,,,,,,,,,0.871,1,0,13,13,5,1,stimuli/blank.png,meine,l,BT08RL,2023-08-16_16h41.38.950,openIAT,2023.1.3,MacIntel,62.5,
,,,,,,a,1,0.915,,,,,,,,,0.915,1,0,14,14,2,1,stimuli/blank.png,ihr,a,BT08RL,2023-08-16_16h41.38.950,openIAT,2023.1.3,MacIntel,62.5,
,,,,,,l,1,1.717,,,,,,,,,1.717,1,0,15,15,15,1,stimuli/blank.png,träge,l,BT08RL,2023-08-16_16h41.38.950,openIAT,2023.1.3,MacIntel,62.5,
,,,,,,l,0,0.822,,,,,,,,,0.822,0,0,16,16,18,1,stimuli/blank.png,human,a,BT08RL,2023-08-16_16h41.38.950,openIAT,2023.1.3,MacIntel,62.5,
,,,,,,l,1,1.679,,,,,,,,,1.679,1,0,17,17,1,1,stimuli/blank.png,ich,l,BT08RL,2023-08-16_16h41.38.950,openIAT,2023.1.3,MacIntel,62.5,
,,,,,,a,1,1.267,,,,,,,,,1.267,1,0,18,18,10,1,stimuli/blank.png,aktiv,a,BT08RL,2023-08-16_16h41.38.950,openIAT,2023.1.3,MacIntel,62.5,
,,,,,,l,1,0.733,,,,,,,,,0.733,1,0,19,19,7,1,stimuli/blank.png,eigene,l,BT08RL,2023-08-16_16h41.38.950,openIAT,2023.1.3,MacIntel,62.5,
,,,,,,a,1,1.246,,,,,,,,,1.246,1,0,0,0,8,1,stimuli/blank.png,eure,a,BT08RL,2023-08-16_16h41.38.950,openIAT,2023.1.3,MacIntel,62.5,
,,,,,,l,1,1.472,,,,,,,,,1.472,1,0,1,1,11,1,stimuli/blank.png,brutal,l,BT08RL,2023-08-16_16h41.38.950,openIAT,2023.1.3,MacIntel,62.5,
,,,,,,l,1,1.155,,,,,,,,,1.155,1,0,2,2,25,1,stimuli/blank.png,meine,l,BT08RL,2023-08-16_16h41.38.950,openIAT,2023.1.3,MacIntel,62.5,
,,,,,,l,1,1,,,,,,,,,1,1,0,3,3,19,1,stimuli/blank.png,lustlos,l,BT08RL,2023-08-16_16h41.38.950,openIAT,2023.1.3,MacIntel,62.5,
,,,,,,l,1,0.631,,,,,,,,,0.631,1,0,4,4,3,1,stimuli/blank.png,mir,l,BT08RL,2023-08-16_16h41.38.950,openIAT,2023.1.3,MacIntel,62.5,
,,,,,,a,0,0.797,,,,,,,,,0.797,0,0,5,5,27,1,stimuli/blank.png,eigene,l,BT08RL,2023-08-16_16h41.38.950,openIAT,2023.1.3,MacIntel,62.5,
,,,,,,l,1,1.781,,,,,,,,,1.781,1,0,6,6,15,1,stimuli/blank.png,träge,l,BT08RL,2023-08-16_16h41.38.950,openIAT,2023.1.3,MacIntel,62.5,
,,,,,,a,1,1.035,,,,,,,,,1.035,1,0,7,7,36,1,stimuli/blank.png,begabt,a,BT08RL,2023-08-16_16h41.38.950,openIAT,2023.1.3,MacIntel,62.5,
,,,,,,a,1,1.097,,,,,,,,,1.097,1,0,8,8,38,1,stimuli/blank.png,human,a,BT08RL,2023-08-16_16h41.38.950,openIAT,2023.1.3,MacIntel,62.5,
,,,,,,a,1,1.397,,,,,,,,,1.397,1,0,9,9,14,1,stimuli/blank.png,gerecht,a,BT08RL,2023-08-16_16h41.38.950,openIAT,2023.1.3,MacIntel,62.5,
,,,,,,a,1,0.931,,,,,,,,,0.931,1,0,10,10,24,1,stimuli/blank.png,jene,a,BT08RL,2023-08-16_16h41.38.950,openIAT,2023.1.3,MacIntel,62.5,
,,,,,,a,1,0.65,,,,,,,,,0.65,1,0,11,11,2,1,stimuli/blank.png,ihr,a,BT08RL,2023-08-16_16h41.38.950,openIAT,2023.1.3,MacIntel,62.5,
,,,,,,l,1,1.651,,,,,,,,,1.651,1,0,12,12,37,1,stimuli/blank.png,eitel,l,BT08RL,2023-08-16_16h41.38.950,openIAT,2023.1.3,MacIntel,62.5,
,,,,,,a,1,0.904,,,,,,,,,0.904,1,0,13,13,18,1,stimuli/blank.png,human,a,BT08RL,2023-08-16_16h41.38.950,openIAT,2023.1.3,MacIntel,62.5,
,,,,,,l,1,0.613,,,,,,,,,0.613,1,0,14,14,1,1,stimuli/blank.png,ich,l,BT08RL,2023-08-16_16h41.38.950,openIAT,2023.1.3,MacIntel,62.5,
,,,,,,l,1,1.398,,,,,,,,,1.398,1,0,15,15,39,1,stimuli/blank.png,lustlos,l,BT08RL,2023-08-16_16h41.38.950,openIAT,2023.1.3,MacIntel,62.5,
,,,,,,l,1,0.607,,,,,,,,,0.607,1,0,16,16,31,1,stimuli/blank.png,brutal,l,BT08RL,2023-08-16_16h41.38.950,openIAT,2023.1.3,MacIntel,62.5,
,,,,,,a,1,0.696,,,,,,,,,0.696,1,0,17,17,26,1,stimuli/blank.png,euch,a,BT08RL,2023-08-16_16h41.38.950,openIAT,2023.1.3,MacIntel,62.5,
,,,,,,a,1,1.034,,,,,,,,,1.034,1,0,18,18,6,1,stimuli/blank.png,euch,a,BT08RL,2023-08-16_16h41.38.950,openIAT,2023.1.3,MacIntel,62.5,
,,,,,,l,0,0.64,,,,,,,,,0.64,0,0,19,19,12,1,stimuli/blank.png,fröhlich,a,BT08RL,2023-08-16_16h41.38.950,openIAT,2023.1.3,MacIntel,62.5,
,,,,,,l,1,0.712,,,,,,,,,0.712,1,0,20,20,29,1,stimuli/blank.png,selbst,l,BT08RL,2023-08-16_16h41.38.950,openIAT,2023.1.3,MacIntel,62.5,
,,,,,,a,1,0.713,,,,,,,,,0.713,1,0,21,21,4,1,stimuli/blank.png,jene,a,BT08RL,2023-08-16_16h41.38.950,openIAT,2023.1.3,MacIntel,62.5,
,,,,,,l,1,0.747,,,,,,,,,0.747,1,0,22,22,9,1,stimuli/blank.png,selbst,l,BT08RL,2023-08-16_16h41.38.950,openIAT,2023.1.3,MacIntel,62.5,
,,,,,,l,1,1.598,,,,,,,,,1.598,1,0,23,23,33,1,stimuli/blank.png,verlogen,l,BT08RL,2023-08-16_16h41.38.950,openIAT,2023.1.3,MacIntel,62.5,
,,,,,,a,0,2.131,,,,,,,,,2.131,0,0,24,24,35,1,stimuli/blank.png,träge,l,BT08RL,2023-08-16_16h41.38.950,openIAT,2023.1.3,MacIntel,62.5,
,,,,,,a,1,0.704,,,,,,,,,0.704,1,0,25,25,20,1,stimuli/blank.png,andere,a,BT08RL,2023-08-16_16h41.38.950,openIAT,2023.1.3,MacIntel,62.5,
,,,,,,a,1,0.617,,,,,,,,,0.617,1,0,26,26,28,1,stimuli/blank.png,eure,a,BT08RL,2023-08-16_16h41.38.950,openIAT,2023.1.3,MacIntel,62.5,
,,,,,,l,1,0.832,,,,,,,,,0.832,1,0,27,27,17,1,stimuli/blank.png,eitel,l,BT08RL,2023-08-16_16h41.38.950,openIAT,2023.1.3,MacIntel,62.5,
,,,,,,a,1,1.297,,,,,,,,,1.297,1,0,28,28,16,1,stimuli/blank.png,begabt,a,BT08RL,2023-08-16_16h41.38.950,openIAT,2023.1.3,MacIntel,62.5,
,,,,,,a,1,1.004,,,,,,,,,1.004,1,0,29,29,32,1,stimuli/blank.png,fröhlich,a,BT08RL,2023-08-16_16h41.38.950,openIAT,2023.1.3,MacIntel,62.5,
,,,,,,a,1,2.006,,,,,,,,,2.006,1,0,30,30,10,1,stimuli/blank.png,aktiv,a,BT08RL,2023-08-16_16h41.38.950,openIAT,2023.1.3,MacIntel,62.5,
,,,,,,a,1,0.752,,,,,,,,,0.752,1,0,31,31,34,1,stimuli/blank.png,gerecht,a,BT08RL,2023-08-16_16h41.38.950,openIAT,2023.1.3,MacIntel,62.5,
,,,,,,a,1,0.764,,,,,,,,,0.764,1,0,32,32,30,1,stimuli/blank.png,aktiv,a,BT08RL,2023-08-16_16h41.38.950,openIAT,2023.1.3,MacIntel,62.5,
,,,,,,a,1,0.862,,,,,,,,,0.862,1,0,33,33,0,1,stimuli/blank.png,andere,a,BT08RL,2023-08-16_16h41.38.950,openIAT,2023.1.3,MacIntel,62.5,
,,,,,,l,1,0.639,,,,,,,,,0.639,1,0,34,34,23,1,stimuli/blank.png,mir,l,BT08RL,2023-08-16_16h41.38.950,openIAT,2023.1.3,MacIntel,62.5,
,,,,,,l,1,0.611,,,,,,,,,0.611,1,0,35,35,7,1,stimuli/blank.png,eigene,l,BT08RL,2023-08-16_16h41.38.950,openIAT,2023.1.3,MacIntel,62.5,
,,,,,,l,1,1.113,,,,,,,,,1.113,1,0,36,36,13,1,stimuli/blank.png,verlogen,l,BT08RL,2023-08-16_16h41.38.950,openIAT,2023.1.3,MacIntel,62.5,
,,,,,,a,1,0.765,,,,,,,,,0.765,1,0,37,37,22,1,stimuli/blank.png,ihr,a,BT08RL,2023-08-16_16h41.38.950,openIAT,2023.1.3,MacIntel,62.5,
,,,,,,l,1,0.58,,,,,,,,,0.58,1,0,38,38,5,1,stimuli/blank.png,meine,l,BT08RL,2023-08-16_16h41.38.950,openIAT,2023.1.3,MacIntel,62.5,
,,,,,,l,1,0.747,,,,,,,,,0.747,1,0,39,39,21,1,stimuli/blank.png,ich,l,BT08RL,2023-08-16_16h41.38.950,openIAT,2023.1.3,MacIntel,62.5,
,,,,,,,,,,,,,,,,,,,,,,,,,,,BT08RL,2023-08-16_16h41.38.950,openIAT,2023.1.3,MacIntel,62.5,
