instr_done_touch.x,instr_done_touch.y,instr_done_touch.leftButton,instr_done_touch.midButton,instr_done_touch.rightButton,instr_done_touch.clicked_name,key_resp.keys,key_resp.corr,key_resp.rt,key_resp.duration,touch_resp.x,touch_resp.y,touch_resp.leftButton,touch_resp.midButton,touch_resp.rightButton,touch_resp.time,touch_resp.clicked_name,rt,corr,trials.thisRepN,trials.thisTrialN,trials.thisN,trials.thisIndex,trials.ran,stimImage,stimWord,CorrAns,participant,date,expName,psychopyVersion,OS,frameRate,return_tic
0.007407407,-0.407407407,1,0,0,instr_done_button,a,1,1.065,,,,,,,,,1.065,1,0,0,0,12,1,stimuli/blank.png,fröhlich,a,CA06FI,2023-08-14_12h08.44.804,openIAT,2023.1.3,Win32,119.9040767,
,,,,,,a,1,0.752,,,,,,,,,0.752,1,0,1,1,4,1,stimuli/blank.png,gerecht,a,CA06FI,2023-08-14_12h08.44.804,openIAT,2023.1.3,Win32,119.9040767,
,,,,,,a,1,0.656,,,,,,,,,0.656,1,0,2,2,16,1,stimuli/blank.png,begabt,a,CA06FI,2023-08-14_12h08.44.804,openIAT,2023.1.3,Win32,119.9040767,
,,,,,,l,1,0.749,,,,,,,,,0.749,1,0,3,3,15,1,stimuli/blank.png,träge,l,CA06FI,2023-08-14_12h08.44.804,openIAT,2023.1.3,Win32,119.9040767,
,,,,,,l,1,0.684,,,,,,,,,0.684,1,0,4,4,11,1,stimuli/blank.png,brutal,l,CA06FI,2023-08-14_12h08.44.804,openIAT,2023.1.3,Win32,119.9040767,
,,,,,,l,1,0.748,,,,,,,,,0.748,1,0,5,5,13,1,stimuli/blank.png,verlogen,l,CA06FI,2023-08-14_12h08.44.804,openIAT,2023.1.3,Win32,119.9040767,
,,,,,,a,1,0.616,,,,,,,,,0.616,1,0,6,6,10,1,stimuli/blank.png,aktiv,a,CA06FI,2023-08-14_12h08.44.804,openIAT,2023.1.3,Win32,119.9040767,
,,,,,,l,1,0.908,,,,,,,,,0.908,1,0,7,7,19,1,stimuli/blank.png,lustlos,l,CA06FI,2023-08-14_12h08.44.804,openIAT,2023.1.3,Win32,119.9040767,
,,,,,,a,1,0.733,,,,,,,,,0.733,1,0,8,8,6,1,stimuli/blank.png,begabt,a,CA06FI,2023-08-14_12h08.44.804,openIAT,2023.1.3,Win32,119.9040767,
,,,,,,a,1,0.697,,,,,,,,,0.697,1,0,9,9,2,1,stimuli/blank.png,fröhlich,a,CA06FI,2023-08-14_12h08.44.804,openIAT,2023.1.3,Win32,119.9040767,
,,,,,,l,1,0.615,,,,,,,,,0.615,1,0,10,10,3,1,stimuli/blank.png,verlogen,l,CA06FI,2023-08-14_12h08.44.804,openIAT,2023.1.3,Win32,119.9040767,
,,,,,,a,1,0.729,,,,,,,,,0.729,1,0,11,11,0,1,stimuli/blank.png,aktiv,a,CA06FI,2023-08-14_12h08.44.804,openIAT,2023.1.3,Win32,119.9040767,
,,,,,,l,1,0.652,,,,,,,,,0.652,1,0,12,12,9,1,stimuli/blank.png,lustlos,l,CA06FI,2023-08-14_12h08.44.804,openIAT,2023.1.3,Win32,119.9040767,
,,,,,,a,1,0.752,,,,,,,,,0.752,1,0,13,13,18,1,stimuli/blank.png,human,a,CA06FI,2023-08-14_12h08.44.804,openIAT,2023.1.3,Win32,119.9040767,
,,,,,,a,0,0.95,,,,,,,,,0.95,0,0,14,14,17,1,stimuli/blank.png,eitel,l,CA06FI,2023-08-14_12h08.44.804,openIAT,2023.1.3,Win32,119.9040767,
,,,,,,a,1,0.87,,,,,,,,,0.87,1,0,15,15,8,1,stimuli/blank.png,human,a,CA06FI,2023-08-14_12h08.44.804,openIAT,2023.1.3,Win32,119.9040767,
,,,,,,a,0,0.666,,,,,,,,,0.666,0,0,16,16,7,1,stimuli/blank.png,eitel,l,CA06FI,2023-08-14_12h08.44.804,openIAT,2023.1.3,Win32,119.9040767,
,,,,,,a,1,1.711,,,,,,,,,1.711,1,0,17,17,14,1,stimuli/blank.png,gerecht,a,CA06FI,2023-08-14_12h08.44.804,openIAT,2023.1.3,Win32,119.9040767,
,,,,,,l,1,1.125,,,,,,,,,1.125,1,0,18,18,1,1,stimuli/blank.png,brutal,l,CA06FI,2023-08-14_12h08.44.804,openIAT,2023.1.3,Win32,119.9040767,
,,,,,,l,1,1.137,,,,,,,,,1.137,1,0,19,19,5,1,stimuli/blank.png,träge,l,CA06FI,2023-08-14_12h08.44.804,openIAT,2023.1.3,Win32,119.9040767,
,,,,,,l,1,2.271,,,,,,,,,2.271,1,0,0,0,18,1,stimuli/blank.png,eure,l,CA06FI,2023-08-14_12h08.44.804,openIAT,2023.1.3,Win32,119.9040767,
,,,,,,l,1,1.078,,,,,,,,,1.078,1,0,1,1,8,1,stimuli/blank.png,eure,l,CA06FI,2023-08-14_12h08.44.804,openIAT,2023.1.3,Win32,119.9040767,
,,,,,,a,1,0.915,,,,,,,,,0.915,1,0,2,2,9,1,stimuli/blank.png,selbst,a,CA06FI,2023-08-14_12h08.44.804,openIAT,2023.1.3,Win32,119.9040767,
,,,,,,a,1,0.722,,,,,,,,,0.722,1,0,3,3,17,1,stimuli/blank.png,eigene,a,CA06FI,2023-08-14_12h08.44.804,openIAT,2023.1.3,Win32,119.9040767,
,,,,,,a,1,0.642,,,,,,,,,0.642,1,0,4,4,7,1,stimuli/blank.png,eigene,a,CA06FI,2023-08-14_12h08.44.804,openIAT,2023.1.3,Win32,119.9040767,
,,,,,,a,1,0.569,,,,,,,,,0.569,1,0,5,5,11,1,stimuli/blank.png,ich,a,CA06FI,2023-08-14_12h08.44.804,openIAT,2023.1.3,Win32,119.9040767,
,,,,,,l,1,0.836,,,,,,,,,0.836,1,0,6,6,2,1,stimuli/blank.png,ihr,l,CA06FI,2023-08-14_12h08.44.804,openIAT,2023.1.3,Win32,119.9040767,
,,,,,,a,1,0.744,,,,,,,,,0.744,1,0,7,7,3,1,stimuli/blank.png,mir,a,CA06FI,2023-08-14_12h08.44.804,openIAT,2023.1.3,Win32,119.9040767,
,,,,,,l,1,0.827,,,,,,,,,0.827,1,0,8,8,16,1,stimuli/blank.png,euch,l,CA06FI,2023-08-14_12h08.44.804,openIAT,2023.1.3,Win32,119.9040767,
,,,,,,l,1,1.403,,,,,,,,,1.403,1,0,9,9,4,1,stimuli/blank.png,jene,l,CA06FI,2023-08-14_12h08.44.804,openIAT,2023.1.3,Win32,119.9040767,
,,,,,,l,1,0.776,,,,,,,,,0.776,1,0,10,10,6,1,stimuli/blank.png,euch,l,CA06FI,2023-08-14_12h08.44.804,openIAT,2023.1.3,Win32,119.9040767,
,,,,,,a,1,0.711,,,,,,,,,0.711,1,0,11,11,5,1,stimuli/blank.png,meine,a,CA06FI,2023-08-14_12h08.44.804,openIAT,2023.1.3,Win32,119.9040767,
,,,,,,a,1,0.693,,,,,,,,,0.693,1,0,12,12,1,1,stimuli/blank.png,ich,a,CA06FI,2023-08-14_12h08.44.804,openIAT,2023.1.3,Win32,119.9040767,
,,,,,,l,1,1.094,,,,,,,,,1.094,1,0,13,13,12,1,stimuli/blank.png,ihr,l,CA06FI,2023-08-14_12h08.44.804,openIAT,2023.1.3,Win32,119.9040767,
,,,,,,a,1,0.804,,,,,,,,,0.804,1,0,14,14,13,1,stimuli/blank.png,mir,a,CA06FI,2023-08-14_12h08.44.804,openIAT,2023.1.3,Win32,119.9040767,
,,,,,,l,1,0.776,,,,,,,,,0.776,1,0,15,15,14,1,stimuli/blank.png,jene,l,CA06FI,2023-08-14_12h08.44.804,openIAT,2023.1.3,Win32,119.9040767,
,,,,,,l,1,1.306,,,,,,,,,1.306,1,0,16,16,10,1,stimuli/blank.png,andere,l,CA06FI,2023-08-14_12h08.44.804,openIAT,2023.1.3,Win32,119.9040767,
,,,,,,a,1,0.633,,,,,,,,,0.633,1,0,17,17,19,1,stimuli/blank.png,selbst,a,CA06FI,2023-08-14_12h08.44.804,openIAT,2023.1.3,Win32,119.9040767,
,,,,,,a,1,0.654,,,,,,,,,0.654,1,0,18,18,15,1,stimuli/blank.png,meine,a,CA06FI,2023-08-14_12h08.44.804,openIAT,2023.1.3,Win32,119.9040767,
,,,,,,l,1,0.808,,,,,,,,,0.808,1,0,19,19,0,1,stimuli/blank.png,andere,l,CA06FI,2023-08-14_12h08.44.804,openIAT,2023.1.3,Win32,119.9040767,
,,,,,,l,1,1.038,,,,,,,,,1.038,1,0,0,0,6,1,stimuli/blank.png,euch,l,CA06FI,2023-08-14_12h08.44.804,openIAT,2023.1.3,Win32,119.9040767,
,,,,,,a,1,0.963,,,,,,,,,0.963,1,0,1,1,16,1,stimuli/blank.png,begabt,a,CA06FI,2023-08-14_12h08.44.804,openIAT,2023.1.3,Win32,119.9040767,
,,,,,,a,1,0.845,,,,,,,,,0.845,1,0,2,2,3,1,stimuli/blank.png,mir,a,CA06FI,2023-08-14_12h08.44.804,openIAT,2023.1.3,Win32,119.9040767,
,,,,,,l,1,0.713,,,,,,,,,0.713,1,0,3,3,0,1,stimuli/blank.png,andere,l,CA06FI,2023-08-14_12h08.44.804,openIAT,2023.1.3,Win32,119.9040767,
,,,,,,l,1,0.647,,,,,,,,,0.647,1,0,4,4,4,1,stimuli/blank.png,jene,l,CA06FI,2023-08-14_12h08.44.804,openIAT,2023.1.3,Win32,119.9040767,
,,,,,,a,1,0.577,,,,,,,,,0.577,1,0,5,5,1,1,stimuli/blank.png,ich,a,CA06FI,2023-08-14_12h08.44.804,openIAT,2023.1.3,Win32,119.9040767,
,,,,,,l,1,0.866,,,,,,,,,0.866,1,0,6,6,2,1,stimuli/blank.png,ihr,l,CA06FI,2023-08-14_12h08.44.804,openIAT,2023.1.3,Win32,119.9040767,
,,,,,,l,1,0.884,,,,,,,,,0.884,1,0,7,7,19,1,stimuli/blank.png,lustlos,l,CA06FI,2023-08-14_12h08.44.804,openIAT,2023.1.3,Win32,119.9040767,
,,,,,,a,1,1.114,,,,,,,,,1.114,1,0,8,8,7,1,stimuli/blank.png,eigene,a,CA06FI,2023-08-14_12h08.44.804,openIAT,2023.1.3,Win32,119.9040767,
,,,,,,l,1,1.047,,,,,,,,,1.047,1,0,9,9,8,1,stimuli/blank.png,eure,l,CA06FI,2023-08-14_12h08.44.804,openIAT,2023.1.3,Win32,119.9040767,
,,,,,,a,1,1.025,,,,,,,,,1.025,1,0,10,10,9,1,stimuli/blank.png,selbst,a,CA06FI,2023-08-14_12h08.44.804,openIAT,2023.1.3,Win32,119.9040767,
,,,,,,a,1,0.724,,,,,,,,,0.724,1,0,11,11,10,1,stimuli/blank.png,aktiv,a,CA06FI,2023-08-14_12h08.44.804,openIAT,2023.1.3,Win32,119.9040767,
,,,,,,a,1,0.666,,,,,,,,,0.666,1,0,12,12,18,1,stimuli/blank.png,human,a,CA06FI,2023-08-14_12h08.44.804,openIAT,2023.1.3,Win32,119.9040767,
,,,,,,a,1,1.131,,,,,,,,,1.131,1,0,13,13,14,1,stimuli/blank.png,gerecht,a,CA06FI,2023-08-14_12h08.44.804,openIAT,2023.1.3,Win32,119.9040767,
,,,,,,a,1,0.691,,,,,,,,,0.691,1,0,14,14,5,1,stimuli/blank.png,meine,a,CA06FI,2023-08-14_12h08.44.804,openIAT,2023.1.3,Win32,119.9040767,
,,,,,,l,1,0.71,,,,,,,,,0.71,1,0,15,15,17,1,stimuli/blank.png,eitel,l,CA06FI,2023-08-14_12h08.44.804,openIAT,2023.1.3,Win32,119.9040767,
,,,,,,l,1,0.899,,,,,,,,,0.899,1,0,16,16,15,1,stimuli/blank.png,träge,l,CA06FI,2023-08-14_12h08.44.804,openIAT,2023.1.3,Win32,119.9040767,
,,,,,,l,1,0.587,,,,,,,,,0.587,1,0,17,17,11,1,stimuli/blank.png,brutal,l,CA06FI,2023-08-14_12h08.44.804,openIAT,2023.1.3,Win32,119.9040767,
,,,,,,l,1,0.594,,,,,,,,,0.594,1,0,18,18,13,1,stimuli/blank.png,verlogen,l,CA06FI,2023-08-14_12h08.44.804,openIAT,2023.1.3,Win32,119.9040767,
,,,,,,a,1,0.777,,,,,,,,,0.777,1,0,19,19,12,1,stimuli/blank.png,fröhlich,a,CA06FI,2023-08-14_12h08.44.804,openIAT,2023.1.3,Win32,119.9040767,
,,,,,,l,1,0.73,,,,,,,,,0.73,1,0,0,0,0,1,stimuli/blank.png,andere,l,CA06FI,2023-08-14_12h08.44.804,openIAT,2023.1.3,Win32,119.9040767,
,,,,,,l,1,0.661,,,,,,,,,0.661,1,0,1,1,39,1,stimuli/blank.png,lustlos,l,CA06FI,2023-08-14_12h08.44.804,openIAT,2023.1.3,Win32,119.9040767,
,,,,,,l,1,0.54,,,,,,,,,0.54,1,0,2,2,13,1,stimuli/blank.png,verlogen,l,CA06FI,2023-08-14_12h08.44.804,openIAT,2023.1.3,Win32,119.9040767,
,,,,,,l,1,1.481,,,,,,,,,1.481,1,0,3,3,28,1,stimuli/blank.png,eure,l,CA06FI,2023-08-14_12h08.44.804,openIAT,2023.1.3,Win32,119.9040767,
,,,,,,a,1,0.811,,,,,,,,,0.811,1,0,4,4,34,1,stimuli/blank.png,gerecht,a,CA06FI,2023-08-14_12h08.44.804,openIAT,2023.1.3,Win32,119.9040767,
,,,,,,l,1,0.723,,,,,,,,,0.723,1,0,5,5,31,1,stimuli/blank.png,brutal,l,CA06FI,2023-08-14_12h08.44.804,openIAT,2023.1.3,Win32,119.9040767,
,,,,,,l,1,0.437,,,,,,,,,0.437,1,0,6,6,11,1,stimuli/blank.png,brutal,l,CA06FI,2023-08-14_12h08.44.804,openIAT,2023.1.3,Win32,119.9040767,
,,,,,,l,1,1.358,,,,,,,,,1.358,1,0,7,7,15,1,stimuli/blank.png,träge,l,CA06FI,2023-08-14_12h08.44.804,openIAT,2023.1.3,Win32,119.9040767,
,,,,,,a,1,0.519,,,,,,,,,0.519,1,0,8,8,32,1,stimuli/blank.png,fröhlich,a,CA06FI,2023-08-14_12h08.44.804,openIAT,2023.1.3,Win32,119.9040767,
,,,,,,a,1,0.778,,,,,,,,,0.778,1,0,9,9,14,1,stimuli/blank.png,gerecht,a,CA06FI,2023-08-14_12h08.44.804,openIAT,2023.1.3,Win32,119.9040767,
,,,,,,l,1,0.593,,,,,,,,,0.593,1,0,10,10,6,1,stimuli/blank.png,euch,l,CA06FI,2023-08-14_12h08.44.804,openIAT,2023.1.3,Win32,119.9040767,
,,,,,,l,1,0.648,,,,,,,,,0.648,1,0,11,11,35,1,stimuli/blank.png,träge,l,CA06FI,2023-08-14_12h08.44.804,openIAT,2023.1.3,Win32,119.9040767,
,,,,,,a,1,0.543,,,,,,,,,0.543,1,0,12,12,5,1,stimuli/blank.png,meine,a,CA06FI,2023-08-14_12h08.44.804,openIAT,2023.1.3,Win32,119.9040767,
,,,,,,l,1,0.838,,,,,,,,,0.838,1,0,13,13,20,1,stimuli/blank.png,andere,l,CA06FI,2023-08-14_12h08.44.804,openIAT,2023.1.3,Win32,119.9040767,
,,,,,,l,1,0.656,,,,,,,,,0.656,1,0,14,14,19,1,stimuli/blank.png,lustlos,l,CA06FI,2023-08-14_12h08.44.804,openIAT,2023.1.3,Win32,119.9040767,
,,,,,,l,1,1.054,,,,,,,,,1.054,1,0,15,15,2,1,stimuli/blank.png,ihr,l,CA06FI,2023-08-14_12h08.44.804,openIAT,2023.1.3,Win32,119.9040767,
,,,,,,a,0,0.616,,,,,,,,,0.616,0,0,16,16,37,1,stimuli/blank.png,eitel,l,CA06FI,2023-08-14_12h08.44.804,openIAT,2023.1.3,Win32,119.9040767,
,,,,,,a,1,0.846,,,,,,,,,0.846,1,0,17,17,23,1,stimuli/blank.png,mir,a,CA06FI,2023-08-14_12h08.44.804,openIAT,2023.1.3,Win32,119.9040767,
,,,,,,l,1,1.016,,,,,,,,,1.016,1,0,18,18,22,1,stimuli/blank.png,ihr,l,CA06FI,2023-08-14_12h08.44.804,openIAT,2023.1.3,Win32,119.9040767,
,,,,,,a,1,0.813,,,,,,,,,0.813,1,0,19,19,12,1,stimuli/blank.png,fröhlich,a,CA06FI,2023-08-14_12h08.44.804,openIAT,2023.1.3,Win32,119.9040767,
,,,,,,a,1,1.135,,,,,,,,,1.135,1,0,20,20,1,1,stimuli/blank.png,ich,a,CA06FI,2023-08-14_12h08.44.804,openIAT,2023.1.3,Win32,119.9040767,
,,,,,,l,1,0.773,,,,,,,,,0.773,1,0,21,21,4,1,stimuli/blank.png,jene,l,CA06FI,2023-08-14_12h08.44.804,openIAT,2023.1.3,Win32,119.9040767,
,,,,,,l,1,0.701,,,,,,,,,0.701,1,0,22,22,33,1,stimuli/blank.png,verlogen,l,CA06FI,2023-08-14_12h08.44.804,openIAT,2023.1.3,Win32,119.9040767,
,,,,,,a,1,0.817,,,,,,,,,0.817,1,0,23,23,30,1,stimuli/blank.png,aktiv,a,CA06FI,2023-08-14_12h08.44.804,openIAT,2023.1.3,Win32,119.9040767,
,,,,,,a,1,0.703,,,,,,,,,0.703,1,0,24,24,18,1,stimuli/blank.png,human,a,CA06FI,2023-08-14_12h08.44.804,openIAT,2023.1.3,Win32,119.9040767,
,,,,,,a,1,0.578,,,,,,,,,0.578,1,0,25,25,10,1,stimuli/blank.png,aktiv,a,CA06FI,2023-08-14_12h08.44.804,openIAT,2023.1.3,Win32,119.9040767,
,,,,,,a,1,0.937,,,,,,,,,0.937,1,0,26,26,21,1,stimuli/blank.png,ich,a,CA06FI,2023-08-14_12h08.44.804,openIAT,2023.1.3,Win32,119.9040767,
,,,,,,l,1,0.907,,,,,,,,,0.907,1,0,27,27,24,1,stimuli/blank.png,jene,l,CA06FI,2023-08-14_12h08.44.804,openIAT,2023.1.3,Win32,119.9040767,
,,,,,,a,1,0.802,,,,,,,,,0.802,1,0,28,28,9,1,stimuli/blank.png,selbst,a,CA06FI,2023-08-14_12h08.44.804,openIAT,2023.1.3,Win32,119.9040767,
,,,,,,l,1,1.03,,,,,,,,,1.03,1,0,29,29,17,1,stimuli/blank.png,eitel,l,CA06FI,2023-08-14_12h08.44.804,openIAT,2023.1.3,Win32,119.9040767,
,,,,,,a,1,0.77,,,,,,,,,0.77,1,0,30,30,16,1,stimuli/blank.png,begabt,a,CA06FI,2023-08-14_12h08.44.804,openIAT,2023.1.3,Win32,119.9040767,
,,,,,,a,1,0.977,,,,,,,,,0.977,1,0,31,31,27,1,stimuli/blank.png,eigene,a,CA06FI,2023-08-14_12h08.44.804,openIAT,2023.1.3,Win32,119.9040767,
,,,,,,a,1,0.839,,,,,,,,,0.839,1,0,32,32,3,1,stimuli/blank.png,mir,a,CA06FI,2023-08-14_12h08.44.804,openIAT,2023.1.3,Win32,119.9040767,
,,,,,,a,1,1.189,,,,,,,,,1.189,1,0,33,33,29,1,stimuli/blank.png,selbst,a,CA06FI,2023-08-14_12h08.44.804,openIAT,2023.1.3,Win32,119.9040767,
,,,,,,a,1,1.012,,,,,,,,,1.012,1,0,34,34,36,1,stimuli/blank.png,begabt,a,CA06FI,2023-08-14_12h08.44.804,openIAT,2023.1.3,Win32,119.9040767,
,,,,,,a,1,0.708,,,,,,,,,0.708,1,0,35,35,7,1,stimuli/blank.png,eigene,a,CA06FI,2023-08-14_12h08.44.804,openIAT,2023.1.3,Win32,119.9040767,
,,,,,,a,1,0.666,,,,,,,,,0.666,1,0,36,36,38,1,stimuli/blank.png,human,a,CA06FI,2023-08-14_12h08.44.804,openIAT,2023.1.3,Win32,119.9040767,
,,,,,,l,1,1.003,,,,,,,,,1.003,1,0,37,37,8,1,stimuli/blank.png,eure,l,CA06FI,2023-08-14_12h08.44.804,openIAT,2023.1.3,Win32,119.9040767,
,,,,,,l,1,1.35,,,,,,,,,1.35,1,0,38,38,26,1,stimuli/blank.png,euch,l,CA06FI,2023-08-14_12h08.44.804,openIAT,2023.1.3,Win32,119.9040767,
,,,,,,a,1,0.991,,,,,,,,,0.991,1,0,39,39,25,1,stimuli/blank.png,meine,a,CA06FI,2023-08-14_12h08.44.804,openIAT,2023.1.3,Win32,119.9040767,
,,,,,,l,1,0.894,,,,,,,,,0.894,1,0,0,0,3,1,stimuli/blank.png,mir,l,CA06FI,2023-08-14_12h08.44.804,openIAT,2023.1.3,Win32,119.9040767,
,,,,,,a,1,0.606,,,,,,,,,0.606,1,0,1,1,12,1,stimuli/blank.png,ihr,a,CA06FI,2023-08-14_12h08.44.804,openIAT,2023.1.3,Win32,119.9040767,
,,,,,,a,1,1.121,,,,,,,,,1.121,1,0,2,2,4,1,stimuli/blank.png,jene,a,CA06FI,2023-08-14_12h08.44.804,openIAT,2023.1.3,Win32,119.9040767,
,,,,,,l,1,0.637,,,,,,,,,0.637,1,0,3,3,11,1,stimuli/blank.png,ich,l,CA06FI,2023-08-14_12h08.44.804,openIAT,2023.1.3,Win32,119.9040767,
,,,,,,a,1,0.779,,,,,,,,,0.779,1,0,4,4,16,1,stimuli/blank.png,euch,a,CA06FI,2023-08-14_12h08.44.804,openIAT,2023.1.3,Win32,119.9040767,
,,,,,,l,1,0.655,,,,,,,,,0.655,1,0,5,5,5,1,stimuli/blank.png,meine,l,CA06FI,2023-08-14_12h08.44.804,openIAT,2023.1.3,Win32,119.9040767,
,,,,,,l,1,0.632,,,,,,,,,0.632,1,0,6,6,13,1,stimuli/blank.png,mir,l,CA06FI,2023-08-14_12h08.44.804,openIAT,2023.1.3,Win32,119.9040767,
,,,,,,l,1,0.596,,,,,,,,,0.596,1,0,7,7,19,1,stimuli/blank.png,selbst,l,CA06FI,2023-08-14_12h08.44.804,openIAT,2023.1.3,Win32,119.9040767,
,,,,,,l,1,0.433,,,,,,,,,0.433,1,0,8,8,9,1,stimuli/blank.png,selbst,l,CA06FI,2023-08-14_12h08.44.804,openIAT,2023.1.3,Win32,119.9040767,
,,,,,,a,1,0.844,,,,,,,,,0.844,1,0,9,9,0,1,stimuli/blank.png,andere,a,CA06FI,2023-08-14_12h08.44.804,openIAT,2023.1.3,Win32,119.9040767,
,,,,,,l,1,0.616,,,,,,,,,0.616,1,0,10,10,7,1,stimuli/blank.png,eigene,l,CA06FI,2023-08-14_12h08.44.804,openIAT,2023.1.3,Win32,119.9040767,
,,,,,,a,1,0.842,,,,,,,,,0.842,1,0,11,11,2,1,stimuli/blank.png,ihr,a,CA06FI,2023-08-14_12h08.44.804,openIAT,2023.1.3,Win32,119.9040767,
,,,,,,l,1,0.739,,,,,,,,,0.739,1,0,12,12,17,1,stimuli/blank.png,eigene,l,CA06FI,2023-08-14_12h08.44.804,openIAT,2023.1.3,Win32,119.9040767,
,,,,,,l,1,0.62,,,,,,,,,0.62,1,0,13,13,15,1,stimuli/blank.png,meine,l,CA06FI,2023-08-14_12h08.44.804,openIAT,2023.1.3,Win32,119.9040767,
,,,,,,a,1,0.716,,,,,,,,,0.716,1,0,14,14,8,1,stimuli/blank.png,eure,a,CA06FI,2023-08-14_12h08.44.804,openIAT,2023.1.3,Win32,119.9040767,
,,,,,,a,1,0.826,,,,,,,,,0.826,1,0,15,15,10,1,stimuli/blank.png,andere,a,CA06FI,2023-08-14_12h08.44.804,openIAT,2023.1.3,Win32,119.9040767,
,,,,,,a,1,0.528,,,,,,,,,0.528,1,0,16,16,6,1,stimuli/blank.png,euch,a,CA06FI,2023-08-14_12h08.44.804,openIAT,2023.1.3,Win32,119.9040767,
,,,,,,a,1,0.581,,,,,,,,,0.581,1,0,17,17,14,1,stimuli/blank.png,jene,a,CA06FI,2023-08-14_12h08.44.804,openIAT,2023.1.3,Win32,119.9040767,
,,,,,,a,1,0.446,,,,,,,,,0.446,1,0,18,18,18,1,stimuli/blank.png,eure,a,CA06FI,2023-08-14_12h08.44.804,openIAT,2023.1.3,Win32,119.9040767,
,,,,,,l,1,0.683,,,,,,,,,0.683,1,0,19,19,1,1,stimuli/blank.png,ich,l,CA06FI,2023-08-14_12h08.44.804,openIAT,2023.1.3,Win32,119.9040767,
,,,,,,l,1,0.914,,,,,,,,,0.914,1,0,0,0,15,1,stimuli/blank.png,träge,l,CA06FI,2023-08-14_12h08.44.804,openIAT,2023.1.3,Win32,119.9040767,
,,,,,,a,1,0.95,,,,,,,,,0.95,1,0,1,1,10,1,stimuli/blank.png,aktiv,a,CA06FI,2023-08-14_12h08.44.804,openIAT,2023.1.3,Win32,119.9040767,
,,,,,,a,1,0.695,,,,,,,,,0.695,1,0,2,2,0,1,stimuli/blank.png,andere,a,CA06FI,2023-08-14_12h08.44.804,openIAT,2023.1.3,Win32,119.9040767,
,,,,,,l,1,1.175,,,,,,,,,1.175,1,0,3,3,7,1,stimuli/blank.png,eigene,l,CA06FI,2023-08-14_12h08.44.804,openIAT,2023.1.3,Win32,119.9040767,
,,,,,,l,0,0.742,,,,,,,,,0.742,0,0,4,4,18,1,stimuli/blank.png,human,a,CA06FI,2023-08-14_12h08.44.804,openIAT,2023.1.3,Win32,119.9040767,
,,,,,,l,1,1.594,,,,,,,,,1.594,1,0,5,5,11,1,stimuli/blank.png,brutal,l,CA06FI,2023-08-14_12h08.44.804,openIAT,2023.1.3,Win32,119.9040767,
,,,,,,l,1,0.999,,,,,,,,,0.999,1,0,6,6,13,1,stimuli/blank.png,verlogen,l,CA06FI,2023-08-14_12h08.44.804,openIAT,2023.1.3,Win32,119.9040767,
,,,,,,a,1,0.851,,,,,,,,,0.851,1,0,7,7,16,1,stimuli/blank.png,begabt,a,CA06FI,2023-08-14_12h08.44.804,openIAT,2023.1.3,Win32,119.9040767,
,,,,,,l,1,1.007,,,,,,,,,1.007,1,0,8,8,17,1,stimuli/blank.png,eitel,l,CA06FI,2023-08-14_12h08.44.804,openIAT,2023.1.3,Win32,119.9040767,
,,,,,,l,1,1.507,,,,,,,,,1.507,1,0,9,9,3,1,stimuli/blank.png,mir,l,CA06FI,2023-08-14_12h08.44.804,openIAT,2023.1.3,Win32,119.9040767,
,,,,,,a,1,0.926,,,,,,,,,0.926,1,0,10,10,12,1,stimuli/blank.png,fröhlich,a,CA06FI,2023-08-14_12h08.44.804,openIAT,2023.1.3,Win32,119.9040767,
,,,,,,a,1,2.485,,,,,,,,,2.485,1,0,11,11,2,1,stimuli/blank.png,ihr,a,CA06FI,2023-08-14_12h08.44.804,openIAT,2023.1.3,Win32,119.9040767,
,,,,,,a,1,0.638,,,,,,,,,0.638,1,0,12,12,6,1,stimuli/blank.png,euch,a,CA06FI,2023-08-14_12h08.44.804,openIAT,2023.1.3,Win32,119.9040767,
,,,,,,l,1,0.898,,,,,,,,,0.898,1,0,13,13,5,1,stimuli/blank.png,meine,l,CA06FI,2023-08-14_12h08.44.804,openIAT,2023.1.3,Win32,119.9040767,
,,,,,,l,1,0.583,,,,,,,,,0.583,1,0,14,14,1,1,stimuli/blank.png,ich,l,CA06FI,2023-08-14_12h08.44.804,openIAT,2023.1.3,Win32,119.9040767,
,,,,,,a,0,1.12,,,,,,,,,1.12,0,0,15,15,19,1,stimuli/blank.png,lustlos,l,CA06FI,2023-08-14_12h08.44.804,openIAT,2023.1.3,Win32,119.9040767,
,,,,,,a,1,1.778,,,,,,,,,1.778,1,0,16,16,14,1,stimuli/blank.png,gerecht,a,CA06FI,2023-08-14_12h08.44.804,openIAT,2023.1.3,Win32,119.9040767,
,,,,,,a,1,0.778,,,,,,,,,0.778,1,0,17,17,8,1,stimuli/blank.png,eure,a,CA06FI,2023-08-14_12h08.44.804,openIAT,2023.1.3,Win32,119.9040767,
,,,,,,l,1,0.773,,,,,,,,,0.773,1,0,18,18,9,1,stimuli/blank.png,selbst,l,CA06FI,2023-08-14_12h08.44.804,openIAT,2023.1.3,Win32,119.9040767,
,,,,,,a,1,0.597,,,,,,,,,0.597,1,0,19,19,4,1,stimuli/blank.png,jene,a,CA06FI,2023-08-14_12h08.44.804,openIAT,2023.1.3,Win32,119.9040767,
,,,,,,a,1,0.822,,,,,,,,,0.822,1,0,0,0,0,1,stimuli/blank.png,andere,a,CA06FI,2023-08-14_12h08.44.804,openIAT,2023.1.3,Win32,119.9040767,
,,,,,,l,0,1.07,,,,,,,,,1.07,0,0,1,1,38,1,stimuli/blank.png,human,a,CA06FI,2023-08-14_12h08.44.804,openIAT,2023.1.3,Win32,119.9040767,
,,,,,,l,1,1.051,,,,,,,,,1.051,1,0,2,2,37,1,stimuli/blank.png,eitel,l,CA06FI,2023-08-14_12h08.44.804,openIAT,2023.1.3,Win32,119.9040767,
,,,,,,l,1,1.248,,,,,,,,,1.248,1,0,3,3,7,1,stimuli/blank.png,eigene,l,CA06FI,2023-08-14_12h08.44.804,openIAT,2023.1.3,Win32,119.9040767,
,,,,,,l,1,0.623,,,,,,,,,0.623,1,0,4,4,27,1,stimuli/blank.png,eigene,l,CA06FI,2023-08-14_12h08.44.804,openIAT,2023.1.3,Win32,119.9040767,
,,,,,,a,1,0.929,,,,,,,,,0.929,1,0,5,5,32,1,stimuli/blank.png,fröhlich,a,CA06FI,2023-08-14_12h08.44.804,openIAT,2023.1.3,Win32,119.9040767,
,,,,,,a,1,0.582,,,,,,,,,0.582,1,0,6,6,34,1,stimuli/blank.png,gerecht,a,CA06FI,2023-08-14_12h08.44.804,openIAT,2023.1.3,Win32,119.9040767,
,,,,,,l,1,1.146,,,,,,,,,1.146,1,0,7,7,9,1,stimuli/blank.png,selbst,l,CA06FI,2023-08-14_12h08.44.804,openIAT,2023.1.3,Win32,119.9040767,
,,,,,,a,1,2.031,,,,,,,,,2.031,1,0,8,8,24,1,stimuli/blank.png,jene,a,CA06FI,2023-08-14_12h08.44.804,openIAT,2023.1.3,Win32,119.9040767,
,,,,,,l,1,2.117,,,,,,,,,2.117,1,0,9,9,11,1,stimuli/blank.png,brutal,l,CA06FI,2023-08-14_12h08.44.804,openIAT,2023.1.3,Win32,119.9040767,
,,,,,,a,1,0.874,,,,,,,,,0.874,1,0,10,10,36,1,stimuli/blank.png,begabt,a,CA06FI,2023-08-14_12h08.44.804,openIAT,2023.1.3,Win32,119.9040767,
,,,,,,a,1,1.259,,,,,,,,,1.259,1,0,11,11,14,1,stimuli/blank.png,gerecht,a,CA06FI,2023-08-14_12h08.44.804,openIAT,2023.1.3,Win32,119.9040767,
,,,,,,l,1,0.799,,,,,,,,,0.799,1,0,12,12,21,1,stimuli/blank.png,ich,l,CA06FI,2023-08-14_12h08.44.804,openIAT,2023.1.3,Win32,119.9040767,
,,,,,,l,1,0.535,,,,,,,,,0.535,1,0,13,13,19,1,stimuli/blank.png,lustlos,l,CA06FI,2023-08-14_12h08.44.804,openIAT,2023.1.3,Win32,119.9040767,
,,,,,,l,1,0.486,,,,,,,,,0.486,1,0,14,14,15,1,stimuli/blank.png,träge,l,CA06FI,2023-08-14_12h08.44.804,openIAT,2023.1.3,Win32,119.9040767,
,,,,,,a,1,0.653,,,,,,,,,0.653,1,0,15,15,16,1,stimuli/blank.png,begabt,a,CA06FI,2023-08-14_12h08.44.804,openIAT,2023.1.3,Win32,119.9040767,
,,,,,,l,1,0.809,,,,,,,,,0.809,1,0,16,16,29,1,stimuli/blank.png,selbst,l,CA06FI,2023-08-14_12h08.44.804,openIAT,2023.1.3,Win32,119.9040767,
,,,,,,a,1,0.593,,,,,,,,,0.593,1,0,17,17,2,1,stimuli/blank.png,ihr,a,CA06FI,2023-08-14_12h08.44.804,openIAT,2023.1.3,Win32,119.9040767,
,,,,,,a,1,0.899,,,,,,,,,0.899,1,0,18,18,4,1,stimuli/blank.png,jene,a,CA06FI,2023-08-14_12h08.44.804,openIAT,2023.1.3,Win32,119.9040767,
,,,,,,l,1,0.686,,,,,,,,,0.686,1,0,19,19,5,1,stimuli/blank.png,meine,l,CA06FI,2023-08-14_12h08.44.804,openIAT,2023.1.3,Win32,119.9040767,
,,,,,,a,1,1.572,,,,,,,,,1.572,1,0,20,20,30,1,stimuli/blank.png,aktiv,a,CA06FI,2023-08-14_12h08.44.804,openIAT,2023.1.3,Win32,119.9040767,
,,,,,,l,1,0.868,,,,,,,,,0.868,1,0,21,21,25,1,stimuli/blank.png,meine,l,CA06FI,2023-08-14_12h08.44.804,openIAT,2023.1.3,Win32,119.9040767,
,,,,,,a,1,1.196,,,,,,,,,1.196,1,0,22,22,26,1,stimuli/blank.png,euch,a,CA06FI,2023-08-14_12h08.44.804,openIAT,2023.1.3,Win32,119.9040767,
,,,,,,l,1,0.683,,,,,,,,,0.683,1,0,23,23,31,1,stimuli/blank.png,brutal,l,CA06FI,2023-08-14_12h08.44.804,openIAT,2023.1.3,Win32,119.9040767,
,,,,,,a,1,0.641,,,,,,,,,0.641,1,0,24,24,18,1,stimuli/blank.png,human,a,CA06FI,2023-08-14_12h08.44.804,openIAT,2023.1.3,Win32,119.9040767,
,,,,,,a,1,0.818,,,,,,,,,0.818,1,0,25,25,8,1,stimuli/blank.png,eure,a,CA06FI,2023-08-14_12h08.44.804,openIAT,2023.1.3,Win32,119.9040767,
,,,,,,a,1,0.422,,,,,,,,,0.422,1,0,26,26,28,1,stimuli/blank.png,eure,a,CA06FI,2023-08-14_12h08.44.804,openIAT,2023.1.3,Win32,119.9040767,
,,,,,,a,1,0.695,,,,,,,,,0.695,1,0,27,27,22,1,stimuli/blank.png,ihr,a,CA06FI,2023-08-14_12h08.44.804,openIAT,2023.1.3,Win32,119.9040767,
,,,,,,a,0,1.127,,,,,,,,,1.127,0,0,28,28,35,1,stimuli/blank.png,träge,l,CA06FI,2023-08-14_12h08.44.804,openIAT,2023.1.3,Win32,119.9040767,
,,,,,,l,1,0.759,,,,,,,,,0.759,1,0,29,29,13,1,stimuli/blank.png,verlogen,l,CA06FI,2023-08-14_12h08.44.804,openIAT,2023.1.3,Win32,119.9040767,
,,,,,,a,1,0.768,,,,,,,,,0.768,1,0,30,30,12,1,stimuli/blank.png,fröhlich,a,CA06FI,2023-08-14_12h08.44.804,openIAT,2023.1.3,Win32,119.9040767,
,,,,,,a,1,0.954,,,,,,,,,0.954,1,0,31,31,20,1,stimuli/blank.png,andere,a,CA06FI,2023-08-14_12h08.44.804,openIAT,2023.1.3,Win32,119.9040767,
,,,,,,a,1,1.089,,,,,,,,,1.089,1,0,32,32,6,1,stimuli/blank.png,euch,a,CA06FI,2023-08-14_12h08.44.804,openIAT,2023.1.3,Win32,119.9040767,
,,,,,,l,1,0.675,,,,,,,,,0.675,1,0,33,33,1,1,stimuli/blank.png,ich,l,CA06FI,2023-08-14_12h08.44.804,openIAT,2023.1.3,Win32,119.9040767,
,,,,,,l,1,0.629,,,,,,,,,0.629,1,0,34,34,33,1,stimuli/blank.png,verlogen,l,CA06FI,2023-08-14_12h08.44.804,openIAT,2023.1.3,Win32,119.9040767,
,,,,,,l,1,0.626,,,,,,,,,0.626,1,0,35,35,39,1,stimuli/blank.png,lustlos,l,CA06FI,2023-08-14_12h08.44.804,openIAT,2023.1.3,Win32,119.9040767,
,,,,,,a,1,0.817,,,,,,,,,0.817,1,0,36,36,10,1,stimuli/blank.png,aktiv,a,CA06FI,2023-08-14_12h08.44.804,openIAT,2023.1.3,Win32,119.9040767,
,,,,,,l,1,1.428,,,,,,,,,1.428,1,0,37,37,17,1,stimuli/blank.png,eitel,l,CA06FI,2023-08-14_12h08.44.804,openIAT,2023.1.3,Win32,119.9040767,
,,,,,,l,1,0.64,,,,,,,,,0.64,1,0,38,38,3,1,stimuli/blank.png,mir,l,CA06FI,2023-08-14_12h08.44.804,openIAT,2023.1.3,Win32,119.9040767,
,,,,,,l,1,0.582,,,,,,,,,0.582,1,0,39,39,23,1,stimuli/blank.png,mir,l,CA06FI,2023-08-14_12h08.44.804,openIAT,2023.1.3,Win32,119.9040767,
,,,,,,,,,,,,,,,,,,,,,,,,,,,CA06FI,2023-08-14_12h08.44.804,openIAT,2023.1.3,Win32,119.9040767,
