instr_done_touch.x,instr_done_touch.y,instr_done_touch.leftButton,instr_done_touch.midButton,instr_done_touch.rightButton,instr_done_touch.clicked_name,key_resp.keys,key_resp.corr,touch_resp.x,touch_resp.y,touch_resp.leftButton,touch_resp.midButton,touch_resp.rightButton,touch_resp.time,touch_resp.clicked_name,rt,corr,trials.thisRepN,trials.thisTrialN,trials.thisN,trials.thisIndex,trials.ran,stimImage,stimWord,CorrAns,participant,date,expName,psychopyVersion,OS,frameRate,return_tic
0.142857143,-0.389285714,1,0,0,instr_done_button,,0,-0.324489796,-0.332142857,1,0,0,4.014,button_left,4.014,1,0,0,0,8,1,stimuli/blank.png,human,a,CR08LR,2023-08-03_07h56.37.098,openIAT,2023.1.3,iPhone,66.66666667,
,,,,,,,0,0.364285714,-0.321938776,1,0,0,1.06,button_right,1.06,1,0,1,1,5,1,stimuli/blank.png,träge,l,CR08LR,2023-08-03_07h56.37.098,openIAT,2023.1.3,iPhone,66.66666667,
,,,,,,,0,-0.318367347,-0.341326531,1,0,0,1.269,button_left,1.269,1,0,2,2,10,1,stimuli/blank.png,aktiv,a,CR08LR,2023-08-03_07h56.37.098,openIAT,2023.1.3,iPhone,66.66666667,
,,,,,,,0,-0.357142857,-0.325,1,0,0,0.821,button_left,0.821,1,0,3,3,2,1,stimuli/blank.png,fröhlich,a,CR08LR,2023-08-03_07h56.37.098,openIAT,2023.1.3,iPhone,66.66666667,
,,,,,,,0,-0.339795918,-0.312755102,1,0,0,1.649,button_left,1.649,1,0,4,4,18,1,stimuli/blank.png,human,a,CR08LR,2023-08-03_07h56.37.098,openIAT,2023.1.3,iPhone,66.66666667,
,,,,,,,0,0.35,-0.309693878,1,0,0,0.851,button_right,0.851,1,0,5,5,19,1,stimuli/blank.png,lustlos,l,CR08LR,2023-08-03_07h56.37.098,openIAT,2023.1.3,iPhone,66.66666667,
,,,,,,,0,0.358163265,-0.348469388,1,0,0,0.896,button_right,0.896,1,0,6,6,13,1,stimuli/blank.png,verlogen,l,CR08LR,2023-08-03_07h56.37.098,openIAT,2023.1.3,iPhone,66.66666667,
,,,,,,,0,-0.389795918,-0.339285714,1,0,0,0.688,button_left,0.688,1,0,7,7,6,1,stimuli/blank.png,begabt,a,CR08LR,2023-08-03_07h56.37.098,openIAT,2023.1.3,iPhone,66.66666667,
,,,,,,,0,-0.369387755,-0.325,1,0,0,0.999,button_left,0.999,1,0,8,8,4,1,stimuli/blank.png,gerecht,a,CR08LR,2023-08-03_07h56.37.098,openIAT,2023.1.3,iPhone,66.66666667,
,,,,,,,0,-0.339795918,-0.289285714,1,0,0,0.606,button_left,0.606,1,0,9,9,14,1,stimuli/blank.png,gerecht,a,CR08LR,2023-08-03_07h56.37.098,openIAT,2023.1.3,iPhone,66.66666667,
,,,,,,,0,-0.369387755,-0.320918367,1,0,0,0.678,button_left,0.678,1,0,10,10,16,1,stimuli/blank.png,begabt,a,CR08LR,2023-08-03_07h56.37.098,openIAT,2023.1.3,iPhone,66.66666667,
,,,,,,,0,-0.374489796,-0.305612245,1,0,0,0.558,button_left,0.558,1,0,11,11,12,1,stimuli/blank.png,fröhlich,a,CR08LR,2023-08-03_07h56.37.098,openIAT,2023.1.3,iPhone,66.66666667,
,,,,,,,0,0.33877551,-0.33622449,1,0,0,0.925,button_right,0.925,1,0,12,12,9,1,stimuli/blank.png,lustlos,l,CR08LR,2023-08-03_07h56.37.098,openIAT,2023.1.3,iPhone,66.66666667,
,,,,,,,0,0.343877551,-0.341326531,1,0,0,0.864,button_right,0.864,1,0,13,13,11,1,stimuli/blank.png,brutal,l,CR08LR,2023-08-03_07h56.37.098,openIAT,2023.1.3,iPhone,66.66666667,
,,,,,,,0,0.345918367,-0.333163265,1,0,0,0.49,button_right,0.49,1,0,14,14,1,1,stimuli/blank.png,brutal,l,CR08LR,2023-08-03_07h56.37.098,openIAT,2023.1.3,iPhone,66.66666667,
,,,,,,,0,-0.359183673,-0.357653061,1,0,0,0.678,button_left,0.678,0,0,15,15,17,1,stimuli/blank.png,eitel,l,CR08LR,2023-08-03_07h56.37.098,openIAT,2023.1.3,iPhone,66.66666667,
,,,,,,,0,0.353061224,-0.335204082,1,0,0,0.918,button_right,0.918,1,0,16,16,15,1,stimuli/blank.png,träge,l,CR08LR,2023-08-03_07h56.37.098,openIAT,2023.1.3,iPhone,66.66666667,
,,,,,,,0,0.368367347,-0.343367347,1,0,0,1.188,button_right,1.188,1,0,17,17,7,1,stimuli/blank.png,eitel,l,CR08LR,2023-08-03_07h56.37.098,openIAT,2023.1.3,iPhone,66.66666667,
,,,,,,,0,0.344897959,-0.295408163,1,0,0,0.618,button_right,0.618,1,0,18,18,3,1,stimuli/blank.png,verlogen,l,CR08LR,2023-08-03_07h56.37.098,openIAT,2023.1.3,iPhone,66.66666667,
,,,,,,,0,-0.357142857,-0.330102041,1,0,0,0.697,button_left,0.697,1,0,19,19,0,1,stimuli/blank.png,aktiv,a,CR08LR,2023-08-03_07h56.37.098,openIAT,2023.1.3,iPhone,66.66666667,
,,,,,,,0,-0.35,-0.343367347,1,0,0,2.48,button_left,2.48,1,0,0,0,7,1,stimuli/blank.png,eigene,a,CR08LR,2023-08-03_07h56.37.098,openIAT,2023.1.3,iPhone,66.66666667,
,,,,,,,0,0.329591837,-0.270918367,1,0,0,0.811,button_right,0.811,1,0,1,1,12,1,stimuli/blank.png,ihr,l,CR08LR,2023-08-03_07h56.37.098,openIAT,2023.1.3,iPhone,66.66666667,
,,,,,,,0,-0.335714286,-0.351530612,1,0,0,0.531,button_left,0.531,1,0,2,2,11,1,stimuli/blank.png,ich,a,CR08LR,2023-08-03_07h56.37.098,openIAT,2023.1.3,iPhone,66.66666667,
,,,,,,,0,-0.351020408,-0.312755102,1,0,0,0.595,button_left,0.595,1,0,3,3,3,1,stimuli/blank.png,mir,a,CR08LR,2023-08-03_07h56.37.098,openIAT,2023.1.3,iPhone,66.66666667,
,,,,,,,0,-0.342857143,-0.29744898,1,0,0,0.531,button_left,0.531,1,0,4,4,15,1,stimuli/blank.png,meine,a,CR08LR,2023-08-03_07h56.37.098,openIAT,2023.1.3,iPhone,66.66666667,
,,,,,,,0,0.33877551,-0.233163265,1,0,0,1.578,button_right,1.578,1,0,5,5,0,1,stimuli/blank.png,andere,l,CR08LR,2023-08-03_07h56.37.098,openIAT,2023.1.3,iPhone,66.66666667,
,,,,,,,0,-0.335714286,-0.333163265,1,0,0,0.556,button_left,0.556,1,0,6,6,19,1,stimuli/blank.png,selbst,a,CR08LR,2023-08-03_07h56.37.098,openIAT,2023.1.3,iPhone,66.66666667,
,,,,,,,0,0.357142857,-0.340306122,1,0,0,0.669,button_right,0.669,1,0,7,7,2,1,stimuli/blank.png,ihr,l,CR08LR,2023-08-03_07h56.37.098,openIAT,2023.1.3,iPhone,66.66666667,
,,,,,,,0,0.325510204,-0.287244898,1,0,0,0.733,button_right,0.733,1,0,8,8,16,1,stimuli/blank.png,euch,l,CR08LR,2023-08-03_07h56.37.098,openIAT,2023.1.3,iPhone,66.66666667,
,,,,,,,0,0.339795918,-0.306632653,1,0,0,0.452,button_right,0.452,1,0,9,9,18,1,stimuli/blank.png,eure,l,CR08LR,2023-08-03_07h56.37.098,openIAT,2023.1.3,iPhone,66.66666667,
,,,,,,,0,0.347959184,-0.320918367,1,0,0,0.603,button_right,0.603,1,0,10,10,4,1,stimuli/blank.png,jene,l,CR08LR,2023-08-03_07h56.37.098,openIAT,2023.1.3,iPhone,66.66666667,
,,,,,,,0,0.341836735,-0.290306122,1,0,0,0.447,button_right,0.447,1,0,11,11,14,1,stimuli/blank.png,jene,l,CR08LR,2023-08-03_07h56.37.098,openIAT,2023.1.3,iPhone,66.66666667,
,,,,,,,0,0.343877551,-0.310714286,1,0,0,0.605,button_right,0.605,1,0,12,12,8,1,stimuli/blank.png,eure,l,CR08LR,2023-08-03_07h56.37.098,openIAT,2023.1.3,iPhone,66.66666667,
,,,,,,,0,-0.356122449,-0.315816327,1,0,0,0.617,button_left,0.617,1,0,13,13,1,1,stimuli/blank.png,ich,a,CR08LR,2023-08-03_07h56.37.098,openIAT,2023.1.3,iPhone,66.66666667,
,,,,,,,0,-0.364285714,-0.321938776,1,0,0,0.63,button_left,0.63,1,0,14,14,17,1,stimuli/blank.png,eigene,a,CR08LR,2023-08-03_07h56.37.098,openIAT,2023.1.3,iPhone,66.66666667,
,,,,,,,0,-0.364285714,-0.301530612,1,0,0,0.438,button_left,0.438,1,0,15,15,13,1,stimuli/blank.png,mir,a,CR08LR,2023-08-03_07h56.37.098,openIAT,2023.1.3,iPhone,66.66666667,
,,,,,,,0,0.33877551,-0.30255102,1,0,0,0.745,button_right,0.745,1,0,16,16,6,1,stimuli/blank.png,euch,l,CR08LR,2023-08-03_07h56.37.098,openIAT,2023.1.3,iPhone,66.66666667,
,,,,,,,0,-0.359183673,-0.310714286,1,0,0,0.64,button_left,0.64,1,0,17,17,9,1,stimuli/blank.png,selbst,a,CR08LR,2023-08-03_07h56.37.098,openIAT,2023.1.3,iPhone,66.66666667,
,,,,,,,0,0.346938776,-0.315816327,1,0,0,0.676,button_right,0.676,1,0,18,18,10,1,stimuli/blank.png,andere,l,CR08LR,2023-08-03_07h56.37.098,openIAT,2023.1.3,iPhone,66.66666667,
,,,,,,,0,-0.344897959,-0.307653061,1,0,0,0.816,button_left,0.816,1,0,19,19,5,1,stimuli/blank.png,meine,a,CR08LR,2023-08-03_07h56.37.098,openIAT,2023.1.3,iPhone,66.66666667,
,,,,,,,0,0.360204082,-0.318877551,1,0,0,3.396,button_right,3.396,1,0,0,0,11,1,stimuli/blank.png,brutal,l,CR08LR,2023-08-03_07h56.37.098,openIAT,2023.1.3,iPhone,66.66666667,
,,,,,,,0,-0.333673469,-0.362755102,1,0,0,0.892,button_left,0.892,1,0,1,1,9,1,stimuli/blank.png,selbst,a,CR08LR,2023-08-03_07h56.37.098,openIAT,2023.1.3,iPhone,66.66666667,
,,,,,,,0,0.351020408,-0.264795918,1,0,0,1.194,button_right,1.194,1,0,2,2,13,1,stimuli/blank.png,verlogen,l,CR08LR,2023-08-03_07h56.37.098,openIAT,2023.1.3,iPhone,66.66666667,
,,,,,,,0,0.335714286,-0.225,1,0,0,0.663,button_right,0.663,1,0,3,3,15,1,stimuli/blank.png,träge,l,CR08LR,2023-08-03_07h56.37.098,openIAT,2023.1.3,iPhone,66.66666667,
,,,,,,,0,0.336734694,-0.28622449,1,0,0,0.647,button_right,0.647,1,0,4,4,17,1,stimuli/blank.png,eitel,l,CR08LR,2023-08-03_07h56.37.098,openIAT,2023.1.3,iPhone,66.66666667,
,,,,,,,0,-0.369387755,-0.309693878,1,0,0,0.595,button_left,0.595,1,0,5,5,5,1,stimuli/blank.png,meine,a,CR08LR,2023-08-03_07h56.37.098,openIAT,2023.1.3,iPhone,66.66666667,
,,,,,,,0,0.325510204,-0.265816327,1,0,0,0.681,button_right,0.681,1,0,6,6,4,1,stimuli/blank.png,jene,l,CR08LR,2023-08-03_07h56.37.098,openIAT,2023.1.3,iPhone,66.66666667,
,,,,,,,0,-0.363265306,-0.306632653,1,0,0,0.978,button_left,0.978,1,0,7,7,18,1,stimuli/blank.png,human,a,CR08LR,2023-08-03_07h56.37.098,openIAT,2023.1.3,iPhone,66.66666667,
,,,,,,,0,-0.373469388,-0.314795918,1,0,0,0.72,button_left,0.72,1,0,8,8,16,1,stimuli/blank.png,begabt,a,CR08LR,2023-08-03_07h56.37.098,openIAT,2023.1.3,iPhone,66.66666667,
,,,,,,,0,-0.341836735,-0.315816327,1,0,0,0.506,button_left,0.506,1,0,9,9,12,1,stimuli/blank.png,fröhlich,a,CR08LR,2023-08-03_07h56.37.098,openIAT,2023.1.3,iPhone,66.66666667,
,,,,,,,0,-0.380612245,-0.30255102,1,0,0,0.52,button_left,0.52,1,0,10,10,3,1,stimuli/blank.png,mir,a,CR08LR,2023-08-03_07h56.37.098,openIAT,2023.1.3,iPhone,66.66666667,
,,,,,,,0,-0.379591837,-0.315816327,1,0,0,0.727,button_left,0.727,1,0,11,11,14,1,stimuli/blank.png,gerecht,a,CR08LR,2023-08-03_07h56.37.098,openIAT,2023.1.3,iPhone,66.66666667,
,,,,,,,0,-0.391836735,-0.295408163,1,0,0,0.478,button_left,0.478,0,0,12,12,6,1,stimuli/blank.png,euch,l,CR08LR,2023-08-03_07h56.37.098,openIAT,2023.1.3,iPhone,66.66666667,
,,,,,,,0,-0.382653061,-0.298469388,1,0,0,0.602,button_left,0.602,1,0,13,13,10,1,stimuli/blank.png,aktiv,a,CR08LR,2023-08-03_07h56.37.098,openIAT,2023.1.3,iPhone,66.66666667,
,,,,,,,0,0.343877551,-0.293367347,1,0,0,0.728,button_right,0.728,1,0,14,14,2,1,stimuli/blank.png,ihr,l,CR08LR,2023-08-03_07h56.37.098,openIAT,2023.1.3,iPhone,66.66666667,
,,,,,,,0,-0.305102041,-0.343367347,1,0,0,0.533,button_left,0.533,0,0,15,15,8,1,stimuli/blank.png,eure,l,CR08LR,2023-08-03_07h56.37.098,openIAT,2023.1.3,iPhone,66.66666667,
,,,,,,,0,-0.370408163,-0.295408163,1,0,0,0.617,button_left,0.617,1,0,16,16,7,1,stimuli/blank.png,eigene,a,CR08LR,2023-08-03_07h56.37.098,openIAT,2023.1.3,iPhone,66.66666667,
,,,,,,,0,0.326530612,-0.343367347,1,0,0,0.595,button_right,0.595,1,0,17,17,0,1,stimuli/blank.png,andere,l,CR08LR,2023-08-03_07h56.37.098,openIAT,2023.1.3,iPhone,66.66666667,
,,,,,,,0,-0.344897959,-0.323979592,1,0,0,0.55,button_left,0.55,1,0,18,18,1,1,stimuli/blank.png,ich,a,CR08LR,2023-08-03_07h56.37.098,openIAT,2023.1.3,iPhone,66.66666667,
,,,,,,,0,0.319387755,-0.316836735,1,0,0,0.771,button_right,0.771,1,0,19,19,19,1,stimuli/blank.png,lustlos,l,CR08LR,2023-08-03_07h56.37.098,openIAT,2023.1.3,iPhone,66.66666667,
,,,,,,,0,0.345918367,-0.333163265,1,0,0,1.221,button_right,1.221,1,0,0,0,24,1,stimuli/blank.png,jene,l,CR08LR,2023-08-03_07h56.37.098,openIAT,2023.1.3,iPhone,66.66666667,
,,,,,,,0,0.343877551,-0.28622449,1,0,0,0.629,button_right,0.629,1,0,1,1,13,1,stimuli/blank.png,verlogen,l,CR08LR,2023-08-03_07h56.37.098,openIAT,2023.1.3,iPhone,66.66666667,
,,,,,,,0,-0.374489796,-0.340306122,1,0,0,0.822,button_left,0.822,1,0,2,2,36,1,stimuli/blank.png,begabt,a,CR08LR,2023-08-03_07h56.37.098,openIAT,2023.1.3,iPhone,66.66666667,
,,,,,,,0,-0.36122449,-0.35255102,1,0,0,0.579,button_left,0.579,1,0,3,3,32,1,stimuli/blank.png,fröhlich,a,CR08LR,2023-08-03_07h56.37.098,openIAT,2023.1.3,iPhone,66.66666667,
,,,,,,,0,-0.373469388,-0.33622449,1,0,0,0.586,button_left,0.586,1,0,4,4,18,1,stimuli/blank.png,human,a,CR08LR,2023-08-03_07h56.37.098,openIAT,2023.1.3,iPhone,66.66666667,
,,,,,,,0,0.335714286,-0.30255102,1,0,0,1.203,button_right,1.203,1,0,5,5,19,1,stimuli/blank.png,lustlos,l,CR08LR,2023-08-03_07h56.37.098,openIAT,2023.1.3,iPhone,66.66666667,
,,,,,,,0,0.296938776,-0.275,1,0,0,0.753,button_right,0.753,1,0,6,6,26,1,stimuli/blank.png,euch,l,CR08LR,2023-08-03_07h56.37.098,openIAT,2023.1.3,iPhone,66.66666667,
,,,,,,,0,0.339795918,-0.327040816,1,0,0,0.595,button_right,0.595,1,0,7,7,15,1,stimuli/blank.png,träge,l,CR08LR,2023-08-03_07h56.37.098,openIAT,2023.1.3,iPhone,66.66666667,
,,,,,,,0,0.339795918,-0.331122449,1,0,0,0.684,button_right,0.684,1,0,8,8,8,1,stimuli/blank.png,eure,l,CR08LR,2023-08-03_07h56.37.098,openIAT,2023.1.3,iPhone,66.66666667,
,,,,,,,0,-0.353061224,-0.349489796,1,0,0,0.662,button_left,0.662,1,0,9,9,21,1,stimuli/blank.png,ich,a,CR08LR,2023-08-03_07h56.37.098,openIAT,2023.1.3,iPhone,66.66666667,
,,,,,,,0,-0.337755102,-0.359693878,1,0,0,0.574,button_left,0.574,1,0,10,10,9,1,stimuli/blank.png,selbst,a,CR08LR,2023-08-03_07h56.37.098,openIAT,2023.1.3,iPhone,66.66666667,
,,,,,,,0,-0.317346939,-0.355612245,1,0,0,0.573,button_left,0.573,1,0,11,11,29,1,stimuli/blank.png,selbst,a,CR08LR,2023-08-03_07h56.37.098,openIAT,2023.1.3,iPhone,66.66666667,
,,,,,,,0,-0.335714286,-0.333163265,1,0,0,0.487,button_left,0.487,1,0,12,12,23,1,stimuli/blank.png,mir,a,CR08LR,2023-08-03_07h56.37.098,openIAT,2023.1.3,iPhone,66.66666667,
,,,,,,,0,0.353061224,-0.332142857,1,0,0,0.584,button_right,0.584,1,0,13,13,17,1,stimuli/blank.png,eitel,l,CR08LR,2023-08-03_07h56.37.098,openIAT,2023.1.3,iPhone,66.66666667,
,,,,,,,0,0.352040816,-0.348469388,1,0,0,0.873,button_right,0.873,1,0,14,14,2,1,stimuli/blank.png,ihr,l,CR08LR,2023-08-03_07h56.37.098,openIAT,2023.1.3,iPhone,66.66666667,
,,,,,,,0,0.339795918,-0.306632653,1,0,0,0.764,button_right,0.764,1,0,15,15,6,1,stimuli/blank.png,euch,l,CR08LR,2023-08-03_07h56.37.098,openIAT,2023.1.3,iPhone,66.66666667,
,,,,,,,0,0.346938776,-0.308673469,1,0,0,0.651,button_right,0.651,1,0,16,16,31,1,stimuli/blank.png,brutal,l,CR08LR,2023-08-03_07h56.37.098,openIAT,2023.1.3,iPhone,66.66666667,
,,,,,,,0,-0.315306122,-0.298469388,1,0,0,0.827,button_left,0.827,1,0,17,17,1,1,stimuli/blank.png,ich,a,CR08LR,2023-08-03_07h56.37.098,openIAT,2023.1.3,iPhone,66.66666667,
,,,,,,,0,0.414285714,-0.315816327,1,0,0,0.754,button_right,0.754,1,0,18,18,0,1,stimuli/blank.png,andere,l,CR08LR,2023-08-03_07h56.37.098,openIAT,2023.1.3,iPhone,66.66666667,
,,,,,,,0,0.336734694,-0.310714286,1,0,0,0.727,button_right,0.727,1,0,19,19,22,1,stimuli/blank.png,ihr,l,CR08LR,2023-08-03_07h56.37.098,openIAT,2023.1.3,iPhone,66.66666667,
,,,,,,,0,-0.341836735,-0.315816327,1,0,0,0.624,button_left,0.624,1,0,20,20,12,1,stimuli/blank.png,fröhlich,a,CR08LR,2023-08-03_07h56.37.098,openIAT,2023.1.3,iPhone,66.66666667,
,,,,,,,0,-0.309183673,-0.346428571,1,0,0,0.49,button_left,0.49,1,0,21,21,3,1,stimuli/blank.png,mir,a,CR08LR,2023-08-03_07h56.37.098,openIAT,2023.1.3,iPhone,66.66666667,
,,,,,,,0,-0.304081633,-0.319897959,1,0,0,0.586,button_left,0.586,1,0,22,22,38,1,stimuli/blank.png,human,a,CR08LR,2023-08-03_07h56.37.098,openIAT,2023.1.3,iPhone,66.66666667,
,,,,,,,0,-0.3,-0.289285714,1,0,0,0.549,button_left,0.549,1,0,23,23,7,1,stimuli/blank.png,eigene,a,CR08LR,2023-08-03_07h56.37.098,openIAT,2023.1.3,iPhone,66.66666667,
,,,,,,,0,0.332653061,-0.24744898,1,0,0,0.758,button_right,0.758,1,0,24,24,20,1,stimuli/blank.png,andere,l,CR08LR,2023-08-03_07h56.37.098,openIAT,2023.1.3,iPhone,66.66666667,
,,,,,,,0,-0.314285714,-0.339285714,1,0,0,1.777,button_left,1.777,1,0,25,25,16,1,stimuli/blank.png,begabt,a,CR08LR,2023-08-03_07h56.37.098,openIAT,2023.1.3,iPhone,66.66666667,
,,,,,,,0,0.331632653,-0.341326531,1,0,0,0.894,button_right,0.894,1,0,26,26,4,1,stimuli/blank.png,jene,l,CR08LR,2023-08-03_07h56.37.098,openIAT,2023.1.3,iPhone,66.66666667,
,,,,,,,0,0.359183673,-0.361734694,1,0,0,1.497,button_right,1.497,1,0,27,27,33,1,stimuli/blank.png,verlogen,l,CR08LR,2023-08-03_07h56.37.098,openIAT,2023.1.3,iPhone,66.66666667,
,,,,,,,0,0.333673469,-0.327040816,1,0,0,1.128,button_right,1.128,1,0,28,28,37,1,stimuli/blank.png,eitel,l,CR08LR,2023-08-03_07h56.37.098,openIAT,2023.1.3,iPhone,66.66666667,
,,,,,,,0,-0.330612245,-0.332142857,1,0,0,1.884,button_left,1.884,1,0,29,29,14,1,stimuli/blank.png,gerecht,a,CR08LR,2023-08-03_07h56.37.098,openIAT,2023.1.3,iPhone,66.66666667,
,,,,,,,0,-0.340816327,-0.348469388,1,0,0,0.575,button_left,0.575,1,0,30,30,30,1,stimuli/blank.png,aktiv,a,CR08LR,2023-08-03_07h56.37.098,openIAT,2023.1.3,iPhone,66.66666667,
,,,,,,,0,-0.333673469,-0.320918367,1,0,0,0.54,button_left,0.54,1,0,31,31,10,1,stimuli/blank.png,aktiv,a,CR08LR,2023-08-03_07h56.37.098,openIAT,2023.1.3,iPhone,66.66666667,
,,,,,,,0,-0.342857143,-0.31377551,1,0,0,0.628,button_left,0.628,1,0,32,32,27,1,stimuli/blank.png,eigene,a,CR08LR,2023-08-03_07h56.37.098,openIAT,2023.1.3,iPhone,66.66666667,
,,,,,,,0,0.404081633,-0.362755102,1,0,0,0.828,button_right,0.828,1,0,33,33,39,1,stimuli/blank.png,lustlos,l,CR08LR,2023-08-03_07h56.37.098,openIAT,2023.1.3,iPhone,66.66666667,
,,,,,,,0,0.378571429,-0.307653061,1,0,0,0.662,button_right,0.662,1,0,34,34,35,1,stimuli/blank.png,träge,l,CR08LR,2023-08-03_07h56.37.098,openIAT,2023.1.3,iPhone,66.66666667,
,,,,,,,0,0.358163265,-0.296428571,1,0,0,0.805,button_right,0.805,1,0,35,35,11,1,stimuli/blank.png,brutal,l,CR08LR,2023-08-03_07h56.37.098,openIAT,2023.1.3,iPhone,66.66666667,
,,,,,,,0,-0.38877551,-0.281122449,1,0,0,0.778,button_left,0.778,1,0,36,36,5,1,stimuli/blank.png,meine,a,CR08LR,2023-08-03_07h56.37.098,openIAT,2023.1.3,iPhone,66.66666667,
,,,,,,,0,0.347959184,-0.319897959,1,0,0,1.396,button_right,1.396,1,0,37,37,28,1,stimuli/blank.png,eure,l,CR08LR,2023-08-03_07h56.37.098,openIAT,2023.1.3,iPhone,66.66666667,
,,,,,,,0,-0.335714286,-0.341326531,1,0,0,0.571,button_left,0.571,1,0,38,38,25,1,stimuli/blank.png,meine,a,CR08LR,2023-08-03_07h56.37.098,openIAT,2023.1.3,iPhone,66.66666667,
,,,,,,,0,-0.325510204,-0.354591837,1,0,0,0.644,button_left,0.644,1,0,39,39,34,1,stimuli/blank.png,gerecht,a,CR08LR,2023-08-03_07h56.37.098,openIAT,2023.1.3,iPhone,66.66666667,
,,,,,,,0,0.35,-0.361734694,1,0,0,0.646,button_right,0.646,0,0,0,0,14,1,stimuli/blank.png,jene,a,CR08LR,2023-08-03_07h56.37.098,openIAT,2023.1.3,iPhone,66.66666667,
,,,,,,,0,-0.333673469,-0.33622449,1,0,0,2.209,button_left,2.209,1,0,1,1,12,1,stimuli/blank.png,ihr,a,CR08LR,2023-08-03_07h56.37.098,openIAT,2023.1.3,iPhone,66.66666667,
,,,,,,,0,0.359183673,-0.353571429,1,0,0,0.707,button_right,0.707,1,0,2,2,17,1,stimuli/blank.png,eigene,l,CR08LR,2023-08-03_07h56.37.098,openIAT,2023.1.3,iPhone,66.66666667,
,,,,,,,0,0.354081633,-0.305612245,1,0,0,0.582,button_right,0.582,1,0,3,3,15,1,stimuli/blank.png,meine,l,CR08LR,2023-08-03_07h56.37.098,openIAT,2023.1.3,iPhone,66.66666667,
,,,,,,,0,-0.328571429,-0.362755102,1,0,0,0.62,button_left,0.62,1,0,4,4,8,1,stimuli/blank.png,eure,a,CR08LR,2023-08-03_07h56.37.098,openIAT,2023.1.3,iPhone,66.66666667,
,,,,,,,0,0.345918367,-0.30255102,1,0,0,0.698,button_right,0.698,1,0,5,5,19,1,stimuli/blank.png,selbst,l,CR08LR,2023-08-03_07h56.37.098,openIAT,2023.1.3,iPhone,66.66666667,
,,,,,,,0,0.325510204,-0.315816327,1,0,0,0.586,button_right,0.586,1,0,6,6,7,1,stimuli/blank.png,eigene,l,CR08LR,2023-08-03_07h56.37.098,openIAT,2023.1.3,iPhone,66.66666667,
,,,,,,,0,0.36122449,-0.316836735,1,0,0,0.933,button_right,0.933,1,0,7,7,3,1,stimuli/blank.png,mir,l,CR08LR,2023-08-03_07h56.37.098,openIAT,2023.1.3,iPhone,66.66666667,
,,,,,,,0,-0.303061224,-0.382142857,1,0,0,0.953,button_left,0.953,1,0,8,8,2,1,stimuli/blank.png,ihr,a,CR08LR,2023-08-03_07h56.37.098,openIAT,2023.1.3,iPhone,66.66666667,
,,,,,,,0,0.330612245,-0.345408163,1,0,0,0.52,button_right,0.52,1,0,9,9,11,1,stimuli/blank.png,ich,l,CR08LR,2023-08-03_07h56.37.098,openIAT,2023.1.3,iPhone,66.66666667,
,,,,,,,0,-0.306122449,-0.361734694,1,0,0,0.588,button_left,0.588,1,0,10,10,16,1,stimuli/blank.png,euch,a,CR08LR,2023-08-03_07h56.37.098,openIAT,2023.1.3,iPhone,66.66666667,
,,,,,,,0,0.329591837,-0.355612245,1,0,0,0.522,button_right,0.522,1,0,11,11,9,1,stimuli/blank.png,selbst,l,CR08LR,2023-08-03_07h56.37.098,openIAT,2023.1.3,iPhone,66.66666667,
,,,,,,,0,-0.312244898,-0.369897959,1,0,0,0.582,button_left,0.582,1,0,12,12,0,1,stimuli/blank.png,andere,a,CR08LR,2023-08-03_07h56.37.098,openIAT,2023.1.3,iPhone,66.66666667,
,,,,,,,0,0.33877551,-0.318877551,1,0,0,0.563,button_right,0.563,1,0,13,13,1,1,stimuli/blank.png,ich,l,CR08LR,2023-08-03_07h56.37.098,openIAT,2023.1.3,iPhone,66.66666667,
,,,,,,,0,0.333673469,-0.334183673,1,0,0,0.598,button_right,0.598,1,0,14,14,5,1,stimuli/blank.png,meine,l,CR08LR,2023-08-03_07h56.37.098,openIAT,2023.1.3,iPhone,66.66666667,
,,,,,,,0,-0.321428571,-0.375,1,0,0,0.58,button_left,0.58,1,0,15,15,6,1,stimuli/blank.png,euch,a,CR08LR,2023-08-03_07h56.37.098,openIAT,2023.1.3,iPhone,66.66666667,
,,,,,,,0,0.325510204,-0.325,1,0,0,0.76,button_right,0.76,0,0,16,16,18,1,stimuli/blank.png,eure,a,CR08LR,2023-08-03_07h56.37.098,openIAT,2023.1.3,iPhone,66.66666667,
,,,,,,,0,0.323469388,-0.321938776,1,0,0,0.554,button_right,0.554,1,0,17,17,13,1,stimuli/blank.png,mir,l,CR08LR,2023-08-03_07h56.37.098,openIAT,2023.1.3,iPhone,66.66666667,
,,,,,,,0,-0.341836735,-0.343367347,1,0,0,1.267,button_left,1.267,1,0,18,18,4,1,stimuli/blank.png,jene,a,CR08LR,2023-08-03_07h56.37.098,openIAT,2023.1.3,iPhone,66.66666667,
,,,,,,,0,-0.345918367,-0.357653061,1,0,0,0.67,button_left,0.67,1,0,19,19,10,1,stimuli/blank.png,andere,a,CR08LR,2023-08-03_07h56.37.098,openIAT,2023.1.3,iPhone,66.66666667,
,,,,,,,0,0.393877551,-0.380102041,1,0,0,1.867,button_right,1.867,1,0,0,0,5,1,stimuli/blank.png,meine,l,CR08LR,2023-08-03_07h56.37.098,openIAT,2023.1.3,iPhone,66.66666667,
,,,,,,,0,0.330612245,-0.328061224,1,0,0,0.633,button_right,0.633,1,0,1,1,13,1,stimuli/blank.png,verlogen,l,CR08LR,2023-08-03_07h56.37.098,openIAT,2023.1.3,iPhone,66.66666667,
,,,,,,,0,-0.373469388,-0.343367347,1,0,0,0.827,button_left,0.827,1,0,2,2,14,1,stimuli/blank.png,gerecht,a,CR08LR,2023-08-03_07h56.37.098,openIAT,2023.1.3,iPhone,66.66666667,
,,,,,,,0,-0.336734694,-0.366836735,1,0,0,0.784,button_left,0.784,1,0,3,3,16,1,stimuli/blank.png,begabt,a,CR08LR,2023-08-03_07h56.37.098,openIAT,2023.1.3,iPhone,66.66666667,
,,,,,,,0,-0.32244898,-0.359693878,1,0,0,0.804,button_left,0.804,1,0,4,4,4,1,stimuli/blank.png,jene,a,CR08LR,2023-08-03_07h56.37.098,openIAT,2023.1.3,iPhone,66.66666667,
,,,,,,,0,-0.319387755,-0.372959184,1,0,0,0.64,button_left,0.64,1,0,5,5,0,1,stimuli/blank.png,andere,a,CR08LR,2023-08-03_07h56.37.098,openIAT,2023.1.3,iPhone,66.66666667,
,,,,,,,0,0.355102041,-0.330102041,1,0,0,0.594,button_right,0.594,1,0,6,6,1,1,stimuli/blank.png,ich,l,CR08LR,2023-08-03_07h56.37.098,openIAT,2023.1.3,iPhone,66.66666667,
,,,,,,,0,0.331632653,-0.33622449,1,0,0,0.966,button_right,0.966,1,0,7,7,9,1,stimuli/blank.png,selbst,l,CR08LR,2023-08-03_07h56.37.098,openIAT,2023.1.3,iPhone,66.66666667,
,,,,,,,0,0.335714286,-0.306632653,1,0,0,0.613,button_right,0.613,1,0,8,8,7,1,stimuli/blank.png,eigene,l,CR08LR,2023-08-03_07h56.37.098,openIAT,2023.1.3,iPhone,66.66666667,
,,,,,,,0,-0.334693878,-0.36377551,1,0,0,0.931,button_left,0.931,1,0,9,9,18,1,stimuli/blank.png,human,a,CR08LR,2023-08-03_07h56.37.098,openIAT,2023.1.3,iPhone,66.66666667,
,,,,,,,0,-0.328571429,-0.382142857,1,0,0,2.188,button_left,2.188,1,0,10,10,6,1,stimuli/blank.png,euch,a,CR08LR,2023-08-03_07h56.37.098,openIAT,2023.1.3,iPhone,66.66666667,
,,,,,,,0,-0.32755102,-0.383163265,1,0,0,0.536,button_left,0.536,1,0,11,11,8,1,stimuli/blank.png,eure,a,CR08LR,2023-08-03_07h56.37.098,openIAT,2023.1.3,iPhone,66.66666667,
,,,,,,,0,0.342857143,-0.348469388,1,0,0,0.676,button_right,0.676,0,0,12,12,12,1,stimuli/blank.png,fröhlich,a,CR08LR,2023-08-03_07h56.37.098,openIAT,2023.1.3,iPhone,66.66666667,
,,,,,,,0,0.356122449,-0.325,1,0,0,0.844,button_right,0.844,1,0,13,13,15,1,stimuli/blank.png,träge,l,CR08LR,2023-08-03_07h56.37.098,openIAT,2023.1.3,iPhone,66.66666667,
,,,,,,,0,-0.314285714,-0.396428571,1,0,0,0.792,button_left,0.792,1,0,14,14,10,1,stimuli/blank.png,aktiv,a,CR08LR,2023-08-03_07h56.37.098,openIAT,2023.1.3,iPhone,66.66666667,
,,,,,,,0,0.353061224,-0.292346939,1,0,0,1.701,button_right,1.701,1,0,15,15,17,1,stimuli/blank.png,eitel,l,CR08LR,2023-08-03_07h56.37.098,openIAT,2023.1.3,iPhone,66.66666667,
,,,,,,,0,-0.370408163,-0.36377551,1,0,0,1.176,button_left,1.176,1,0,16,16,2,1,stimuli/blank.png,ihr,a,CR08LR,2023-08-03_07h56.37.098,openIAT,2023.1.3,iPhone,66.66666667,
,,,,,,,0,-0.314285714,-0.381122449,1,0,0,0.666,button_left,0.666,0,0,17,17,11,1,stimuli/blank.png,brutal,l,CR08LR,2023-08-03_07h56.37.098,openIAT,2023.1.3,iPhone,66.66666667,
,,,,,,,0,0.387755102,-0.357653061,1,0,0,0.778,button_right,0.778,1,0,18,18,3,1,stimuli/blank.png,mir,l,CR08LR,2023-08-03_07h56.37.098,openIAT,2023.1.3,iPhone,66.66666667,
,,,,,,,0,0.345918367,-0.314795918,1,0,0,0.786,button_right,0.786,1,0,19,19,19,1,stimuli/blank.png,lustlos,l,CR08LR,2023-08-03_07h56.37.098,openIAT,2023.1.3,iPhone,66.66666667,
,,,,,,,0,0.353061224,-0.375,1,0,0,0.97,button_right,0.97,1,0,0,0,25,1,stimuli/blank.png,meine,l,CR08LR,2023-08-03_07h56.37.098,openIAT,2023.1.3,iPhone,66.66666667,
,,,,,,,0,0.353061224,-0.275,1,0,0,1.459,button_right,1.459,1,0,1,1,39,1,stimuli/blank.png,lustlos,l,CR08LR,2023-08-03_07h56.37.098,openIAT,2023.1.3,iPhone,66.66666667,
,,,,,,,0,0.341836735,-0.346428571,1,0,0,0.587,button_right,0.587,1,0,2,2,23,1,stimuli/blank.png,mir,l,CR08LR,2023-08-03_07h56.37.098,openIAT,2023.1.3,iPhone,66.66666667,
,,,,,,,0,-0.345918367,-0.388265306,1,0,0,1.046,button_left,1.046,1,0,3,3,36,1,stimuli/blank.png,begabt,a,CR08LR,2023-08-03_07h56.37.098,openIAT,2023.1.3,iPhone,66.66666667,
,,,,,,,0,-0.334693878,-0.369897959,1,0,0,2.366,button_left,2.366,1,0,4,4,32,1,stimuli/blank.png,fröhlich,a,CR08LR,2023-08-03_07h56.37.098,openIAT,2023.1.3,iPhone,66.66666667,
,,,,,,,0,0.381632653,-0.367857143,1,0,0,1.446,button_right,1.446,1,0,5,5,29,1,stimuli/blank.png,selbst,l,CR08LR,2023-08-03_07h56.37.098,openIAT,2023.1.3,iPhone,66.66666667,
,,,,,,,0,-0.330612245,-0.383163265,1,0,0,0.792,button_left,0.792,1,0,6,6,28,1,stimuli/blank.png,eure,a,CR08LR,2023-08-03_07h56.37.098,openIAT,2023.1.3,iPhone,66.66666667,
,,,,,,,0,-0.308163265,-0.391326531,1,0,0,1.215,button_left,1.215,1,0,7,7,22,1,stimuli/blank.png,ihr,a,CR08LR,2023-08-03_07h56.37.098,openIAT,2023.1.3,iPhone,66.66666667,
,,,,,,,0,-0.320408163,-0.380102041,1,0,0,3.231,button_left,3.231,1,0,8,8,34,1,stimuli/blank.png,gerecht,a,CR08LR,2023-08-03_07h56.37.098,openIAT,2023.1.3,iPhone,66.66666667,
,,,,,,,0,0.385714286,-0.393367347,1,0,0,0.759,button_right,0.759,1,0,9,9,11,1,stimuli/blank.png,brutal,l,CR08LR,2023-08-03_07h56.37.098,openIAT,2023.1.3,iPhone,66.66666667,
,,,,,,,0,-0.331632653,-0.36377551,1,0,0,0.588,button_left,0.588,1,0,10,10,18,1,stimuli/blank.png,human,a,CR08LR,2023-08-03_07h56.37.098,openIAT,2023.1.3,iPhone,66.66666667,
,,,,,,,0,0.308163265,-0.33622449,1,0,0,0.599,button_right,0.599,1,0,11,11,1,1,stimuli/blank.png,ich,l,CR08LR,2023-08-03_07h56.37.098,openIAT,2023.1.3,iPhone,66.66666667,
,,,,,,,0,-0.340816327,-0.381122449,1,0,0,0.746,button_left,0.746,1,0,12,12,6,1,stimuli/blank.png,euch,a,CR08LR,2023-08-03_07h56.37.098,openIAT,2023.1.3,iPhone,66.66666667,
,,,,,,,0,-0.307142857,-0.361734694,1,0,0,1.346,button_left,1.346,1,0,13,13,0,1,stimuli/blank.png,andere,a,CR08LR,2023-08-03_07h56.37.098,openIAT,2023.1.3,iPhone,66.66666667,
,,,,,,,0,-0.353061224,-0.395408163,1,0,0,0.801,button_left,0.801,1,0,14,14,24,1,stimuli/blank.png,jene,a,CR08LR,2023-08-03_07h56.37.098,openIAT,2023.1.3,iPhone,66.66666667,
,,,,,,,0,0.36122449,-0.316836735,1,0,0,2.361,button_right,2.361,1,0,15,15,15,1,stimuli/blank.png,träge,l,CR08LR,2023-08-03_07h56.37.098,openIAT,2023.1.3,iPhone,66.66666667,
,,,,,,,0,-0.328571429,-0.323979592,1,0,0,0.76,button_left,0.76,1,0,16,16,38,1,stimuli/blank.png,human,a,CR08LR,2023-08-03_07h56.37.098,openIAT,2023.1.3,iPhone,66.66666667,
,,,,,,,0,0.366326531,-0.307653061,1,0,0,0.78,button_right,0.78,1,0,17,17,9,1,stimuli/blank.png,selbst,l,CR08LR,2023-08-03_07h56.37.098,openIAT,2023.1.3,iPhone,66.66666667,
,,,,,,,0,0.371428571,-0.283163265,1,0,0,0.949,button_right,0.949,1,0,18,18,21,1,stimuli/blank.png,ich,l,CR08LR,2023-08-03_07h56.37.098,openIAT,2023.1.3,iPhone,66.66666667,
,,,,,,,0,-0.307142857,-0.353571429,1,0,0,1.002,button_left,1.002,1,0,19,19,12,1,stimuli/blank.png,fröhlich,a,CR08LR,2023-08-03_07h56.37.098,openIAT,2023.1.3,iPhone,66.66666667,
,,,,,,,0,0.363265306,-0.276020408,1,0,0,1.851,button_right,1.851,1,0,20,20,37,1,stimuli/blank.png,eitel,l,CR08LR,2023-08-03_07h56.37.098,openIAT,2023.1.3,iPhone,66.66666667,
,,,,,,,0,-0.341836735,-0.332142857,1,0,0,4.885,button_left,4.885,1,0,21,21,14,1,stimuli/blank.png,gerecht,a,CR08LR,2023-08-03_07h56.37.098,openIAT,2023.1.3,iPhone,66.66666667,
,,,,,,,0,0.37755102,-0.285204082,1,0,0,0.884,button_right,0.884,1,0,22,22,7,1,stimuli/blank.png,eigene,l,CR08LR,2023-08-03_07h56.37.098,openIAT,2023.1.3,iPhone,66.66666667,
,,,,,,,0,0.380612245,-0.273979592,1,0,0,0.632,button_right,0.632,1,0,23,23,3,1,stimuli/blank.png,mir,l,CR08LR,2023-08-03_07h56.37.098,openIAT,2023.1.3,iPhone,66.66666667,
,,,,,,,0,-0.379591837,-0.300510204,1,0,0,1.267,button_left,1.267,0,0,24,24,19,1,stimuli/blank.png,lustlos,l,CR08LR,2023-08-03_07h56.37.098,openIAT,2023.1.3,iPhone,66.66666667,
,,,,,,,0,0.359183673,-0.304591837,1,0,0,0.845,button_right,0.845,1,0,25,25,17,1,stimuli/blank.png,eitel,l,CR08LR,2023-08-03_07h56.37.098,openIAT,2023.1.3,iPhone,66.66666667,
,,,,,,,0,0.373469388,-0.21377551,1,0,0,0.679,button_right,0.679,1,0,26,26,27,1,stimuli/blank.png,eigene,l,CR08LR,2023-08-03_07h56.37.098,openIAT,2023.1.3,iPhone,66.66666667,
,,,,,,,0,-0.376530612,-0.320918367,1,0,0,3.156,button_left,3.156,1,0,27,27,8,1,stimuli/blank.png,eure,a,CR08LR,2023-08-03_07h56.37.098,openIAT,2023.1.3,iPhone,66.66666667,
,,,,,,,0,0.389795918,-0.323979592,1,0,0,0.802,button_right,0.802,0,0,28,28,30,1,stimuli/blank.png,aktiv,a,CR08LR,2023-08-03_07h56.37.098,openIAT,2023.1.3,iPhone,66.66666667,
,,,,,,,0,-0.381632653,-0.355612245,1,0,0,0.789,button_left,0.789,1,0,29,29,20,1,stimuli/blank.png,andere,a,CR08LR,2023-08-03_07h56.37.098,openIAT,2023.1.3,iPhone,66.66666667,
,,,,,,,0,-0.340816327,-0.318877551,1,0,0,0.81,button_left,0.81,1,0,30,30,26,1,stimuli/blank.png,euch,a,CR08LR,2023-08-03_07h56.37.098,openIAT,2023.1.3,iPhone,66.66666667,
,,,,,,,0,0.36122449,-0.33622449,1,0,0,0.96,button_right,0.96,1,0,31,31,13,1,stimuli/blank.png,verlogen,l,CR08LR,2023-08-03_07h56.37.098,openIAT,2023.1.3,iPhone,66.66666667,
,,,,,,,0,-0.376530612,-0.326020408,1,0,0,0.68,button_left,0.68,1,0,32,32,16,1,stimuli/blank.png,begabt,a,CR08LR,2023-08-03_07h56.37.098,openIAT,2023.1.3,iPhone,66.66666667,
,,,,,,,0,-0.368367347,-0.341326531,1,0,0,0.871,button_left,0.871,1,0,33,33,4,1,stimuli/blank.png,jene,a,CR08LR,2023-08-03_07h56.37.098,openIAT,2023.1.3,iPhone,66.66666667,
,,,,,,,0,-0.369387755,-0.304591837,1,0,0,2.322,button_left,2.322,1,0,34,34,10,1,stimuli/blank.png,aktiv,a,CR08LR,2023-08-03_07h56.37.098,openIAT,2023.1.3,iPhone,66.66666667,
,,,,,,,0,0.359183673,-0.249489796,1,0,0,2.363,button_right,2.363,1,0,35,35,33,1,stimuli/blank.png,verlogen,l,CR08LR,2023-08-03_07h56.37.098,openIAT,2023.1.3,iPhone,66.66666667,
,,,,,,,0,0.398979592,-0.340306122,1,0,0,1.343,button_right,1.343,1,0,36,36,5,1,stimuli/blank.png,meine,l,CR08LR,2023-08-03_07h56.37.098,openIAT,2023.1.3,iPhone,66.66666667,
,,,,,,,0,-0.365306122,-0.328061224,1,0,0,1.844,button_left,1.844,1,0,37,37,2,1,stimuli/blank.png,ihr,a,CR08LR,2023-08-03_07h56.37.098,openIAT,2023.1.3,iPhone,66.66666667,
,,,,,,,0,0.342857143,-0.355612245,1,0,0,0.909,button_right,0.909,1,0,38,38,35,1,stimuli/blank.png,träge,l,CR08LR,2023-08-03_07h56.37.098,openIAT,2023.1.3,iPhone,66.66666667,
,,,,,,,0,0.379591837,-0.339285714,1,0,0,2.295,button_right,2.295,1,0,39,39,31,1,stimuli/blank.png,brutal,l,CR08LR,2023-08-03_07h56.37.098,openIAT,2023.1.3,iPhone,66.66666667,
,,,,,,,,,,,,,,,,,,,,,,,,,CR08LR,2023-08-03_07h56.37.098,openIAT,2023.1.3,iPhone,66.66666667,
