instr_done_touch.x,instr_done_touch.y,instr_done_touch.leftButton,instr_done_touch.midButton,instr_done_touch.rightButton,instr_done_touch.clicked_name,key_resp.keys,key_resp.corr,key_resp.rt,key_resp.duration,touch_resp.x,touch_resp.y,touch_resp.leftButton,touch_resp.midButton,touch_resp.rightButton,touch_resp.time,touch_resp.clicked_name,rt,corr,trials.thisRepN,trials.thisTrialN,trials.thisN,trials.thisIndex,trials.ran,stimImage,stimWord,CorrAns,participant,date,expName,psychopyVersion,OS,frameRate,return_tic
-0.076822917,-0.41796875,1,0,0,instr_done_button,l,1,1.0897,,,,,,,,,1.0897,1,0,0,0,19,1,stimuli/blank.png,lustlos,l,DR02RL,2023-08-20_17h20.02.891,openIAT,2023.1.3,Win32,59.89458553,
,,,,,,a,1,0.7485,,,,,,,,,0.7485,1,0,1,1,16,1,stimuli/blank.png,begabt,a,DR02RL,2023-08-20_17h20.02.891,openIAT,2023.1.3,Win32,59.89458553,
,,,,,,a,1,0.7382,,,,,,,,,0.7382,1,0,2,2,14,1,stimuli/blank.png,gerecht,a,DR02RL,2023-08-20_17h20.02.891,openIAT,2023.1.3,Win32,59.89458553,
,,,,,,a,1,0.6233,,,,,,,,,0.6233,1,0,3,3,6,1,stimuli/blank.png,begabt,a,DR02RL,2023-08-20_17h20.02.891,openIAT,2023.1.3,Win32,59.89458553,
,,,,,,l,1,0.8822,,,,,,,,,0.8822,1,0,4,4,7,1,stimuli/blank.png,eitel,l,DR02RL,2023-08-20_17h20.02.891,openIAT,2023.1.3,Win32,59.89458553,
,,,,,,l,1,0.682,,,,,,,,,0.682,1,0,5,5,13,1,stimuli/blank.png,verlogen,l,DR02RL,2023-08-20_17h20.02.891,openIAT,2023.1.3,Win32,59.89458553,
,,,,,,a,1,0.6326,,,,,,,,,0.6326,1,0,6,6,0,1,stimuli/blank.png,aktiv,a,DR02RL,2023-08-20_17h20.02.891,openIAT,2023.1.3,Win32,59.89458553,
,,,,,,l,1,0.6326,,,,,,,,,0.6326,1,0,7,7,1,1,stimuli/blank.png,brutal,l,DR02RL,2023-08-20_17h20.02.891,openIAT,2023.1.3,Win32,59.89458553,
,,,,,,a,1,0.6248,,,,,,,,,0.6248,1,0,8,8,4,1,stimuli/blank.png,gerecht,a,DR02RL,2023-08-20_17h20.02.891,openIAT,2023.1.3,Win32,59.89458553,
,,,,,,l,1,0.6158,,,,,,,,,0.6158,1,0,9,9,17,1,stimuli/blank.png,eitel,l,DR02RL,2023-08-20_17h20.02.891,openIAT,2023.1.3,Win32,59.89458553,
,,,,,,l,1,0.6315,,,,,,,,,0.6315,1,0,10,10,5,1,stimuli/blank.png,träge,l,DR02RL,2023-08-20_17h20.02.891,openIAT,2023.1.3,Win32,59.89458553,
,,,,,,a,1,0.5834,,,,,,,,,0.5834,1,0,11,11,12,1,stimuli/blank.png,fröhlich,a,DR02RL,2023-08-20_17h20.02.891,openIAT,2023.1.3,Win32,59.89458553,
,,,,,,a,1,0.8823,,,,,,,,,0.8823,1,0,12,12,18,1,stimuli/blank.png,human,a,DR02RL,2023-08-20_17h20.02.891,openIAT,2023.1.3,Win32,59.89458553,
,,,,,,l,1,0.5823,,,,,,,,,0.5823,1,0,13,13,15,1,stimuli/blank.png,träge,l,DR02RL,2023-08-20_17h20.02.891,openIAT,2023.1.3,Win32,59.89458553,
,,,,,,l,1,0.6478,,,,,,,,,0.6478,1,0,14,14,11,1,stimuli/blank.png,brutal,l,DR02RL,2023-08-20_17h20.02.891,openIAT,2023.1.3,Win32,59.89458553,
,,,,,,a,1,0.6157,,,,,,,,,0.6157,1,0,15,15,2,1,stimuli/blank.png,fröhlich,a,DR02RL,2023-08-20_17h20.02.891,openIAT,2023.1.3,Win32,59.89458553,
,,,,,,l,1,0.6019,,,,,,,,,0.6019,1,0,16,16,9,1,stimuli/blank.png,lustlos,l,DR02RL,2023-08-20_17h20.02.891,openIAT,2023.1.3,Win32,59.89458553,
,,,,,,l,1,0.5657,,,,,,,,,0.5657,1,0,17,17,3,1,stimuli/blank.png,verlogen,l,DR02RL,2023-08-20_17h20.02.891,openIAT,2023.1.3,Win32,59.89458553,
,,,,,,a,1,0.7023,,,,,,,,,0.7023,1,0,18,18,8,1,stimuli/blank.png,human,a,DR02RL,2023-08-20_17h20.02.891,openIAT,2023.1.3,Win32,59.89458553,
,,,,,,a,1,0.6493,,,,,,,,,0.6493,1,0,19,19,10,1,stimuli/blank.png,aktiv,a,DR02RL,2023-08-20_17h20.02.891,openIAT,2023.1.3,Win32,59.89458553,
,,,,,,a,1,0.6929,,,,,,,,,0.6929,1,0,0,0,5,1,stimuli/blank.png,meine,a,DR02RL,2023-08-20_17h20.02.891,openIAT,2023.1.3,Win32,59.89458553,
,,,,,,a,1,0.6734,,,,,,,,,0.6734,1,0,1,1,7,1,stimuli/blank.png,eigene,a,DR02RL,2023-08-20_17h20.02.891,openIAT,2023.1.3,Win32,59.89458553,
,,,,,,l,1,0.5135,,,,,,,,,0.5135,1,0,2,2,10,1,stimuli/blank.png,andere,l,DR02RL,2023-08-20_17h20.02.891,openIAT,2023.1.3,Win32,59.89458553,
,,,,,,l,1,0.7889,,,,,,,,,0.7889,1,0,3,3,2,1,stimuli/blank.png,ihr,l,DR02RL,2023-08-20_17h20.02.891,openIAT,2023.1.3,Win32,59.89458553,
,,,,,,l,1,0.7154,,,,,,,,,0.7154,1,0,4,4,18,1,stimuli/blank.png,eure,l,DR02RL,2023-08-20_17h20.02.891,openIAT,2023.1.3,Win32,59.89458553,
,,,,,,l,1,0.6048,,,,,,,,,0.6048,1,0,5,5,0,1,stimuli/blank.png,andere,l,DR02RL,2023-08-20_17h20.02.891,openIAT,2023.1.3,Win32,59.89458553,
,,,,,,a,1,0.5959,,,,,,,,,0.5959,1,0,6,6,3,1,stimuli/blank.png,mir,a,DR02RL,2023-08-20_17h20.02.891,openIAT,2023.1.3,Win32,59.89458553,
,,,,,,l,1,0.9039,,,,,,,,,0.9039,1,0,7,7,14,1,stimuli/blank.png,jene,l,DR02RL,2023-08-20_17h20.02.891,openIAT,2023.1.3,Win32,59.89458553,
,,,,,,a,1,0.5885,,,,,,,,,0.5885,1,0,8,8,15,1,stimuli/blank.png,meine,a,DR02RL,2023-08-20_17h20.02.891,openIAT,2023.1.3,Win32,59.89458553,
,,,,,,a,1,0.4811,,,,,,,,,0.4811,1,0,9,9,13,1,stimuli/blank.png,mir,a,DR02RL,2023-08-20_17h20.02.891,openIAT,2023.1.3,Win32,59.89458553,
,,,,,,l,1,0.5818,,,,,,,,,0.5818,1,0,10,10,4,1,stimuli/blank.png,jene,l,DR02RL,2023-08-20_17h20.02.891,openIAT,2023.1.3,Win32,59.89458553,
,,,,,,a,1,0.5368,,,,,,,,,0.5368,1,0,11,11,11,1,stimuli/blank.png,ich,a,DR02RL,2023-08-20_17h20.02.891,openIAT,2023.1.3,Win32,59.89458553,
,,,,,,l,1,0.5727,,,,,,,,,0.5727,1,0,12,12,8,1,stimuli/blank.png,eure,l,DR02RL,2023-08-20_17h20.02.891,openIAT,2023.1.3,Win32,59.89458553,
,,,,,,l,1,0.6666,,,,,,,,,0.6666,1,0,13,13,16,1,stimuli/blank.png,euch,l,DR02RL,2023-08-20_17h20.02.891,openIAT,2023.1.3,Win32,59.89458553,
,,,,,,a,1,0.6508,,,,,,,,,0.6508,1,0,14,14,19,1,stimuli/blank.png,selbst,a,DR02RL,2023-08-20_17h20.02.891,openIAT,2023.1.3,Win32,59.89458553,
,,,,,,l,1,0.5511,,,,,,,,,0.5511,1,0,15,15,6,1,stimuli/blank.png,euch,l,DR02RL,2023-08-20_17h20.02.891,openIAT,2023.1.3,Win32,59.89458553,
,,,,,,l,1,0.6056,,,,,,,,,0.6056,1,0,16,16,12,1,stimuli/blank.png,ihr,l,DR02RL,2023-08-20_17h20.02.891,openIAT,2023.1.3,Win32,59.89458553,
,,,,,,a,1,0.4677,,,,,,,,,0.4677,1,0,17,17,1,1,stimuli/blank.png,ich,a,DR02RL,2023-08-20_17h20.02.891,openIAT,2023.1.3,Win32,59.89458553,
,,,,,,a,1,0.6342,,,,,,,,,0.6342,1,0,18,18,9,1,stimuli/blank.png,selbst,a,DR02RL,2023-08-20_17h20.02.891,openIAT,2023.1.3,Win32,59.89458553,
,,,,,,l,0,1.0507,,,,,,,,,1.0507,0,0,19,19,17,1,stimuli/blank.png,eigene,a,DR02RL,2023-08-20_17h20.02.891,openIAT,2023.1.3,Win32,59.89458553,
,,,,,,l,1,0.717,,,,,,,,,0.717,1,0,0,0,11,1,stimuli/blank.png,brutal,l,DR02RL,2023-08-20_17h20.02.891,openIAT,2023.1.3,Win32,59.89458553,
,,,,,,l,1,0.837,,,,,,,,,0.837,1,0,1,1,13,1,stimuli/blank.png,verlogen,l,DR02RL,2023-08-20_17h20.02.891,openIAT,2023.1.3,Win32,59.89458553,
,,,,,,a,1,0.8492,,,,,,,,,0.8492,1,0,2,2,12,1,stimuli/blank.png,fröhlich,a,DR02RL,2023-08-20_17h20.02.891,openIAT,2023.1.3,Win32,59.89458553,
,,,,,,a,1,0.6552,,,,,,,,,0.6552,1,0,3,3,5,1,stimuli/blank.png,meine,a,DR02RL,2023-08-20_17h20.02.891,openIAT,2023.1.3,Win32,59.89458553,
,,,,,,l,1,0.7989,,,,,,,,,0.7989,1,0,4,4,19,1,stimuli/blank.png,lustlos,l,DR02RL,2023-08-20_17h20.02.891,openIAT,2023.1.3,Win32,59.89458553,
,,,,,,a,1,0.6862,,,,,,,,,0.6862,1,0,5,5,18,1,stimuli/blank.png,human,a,DR02RL,2023-08-20_17h20.02.891,openIAT,2023.1.3,Win32,59.89458553,
,,,,,,l,1,1.1216,,,,,,,,,1.1216,1,0,6,6,4,1,stimuli/blank.png,jene,l,DR02RL,2023-08-20_17h20.02.891,openIAT,2023.1.3,Win32,59.89458553,
,,,,,,a,1,1.1716,,,,,,,,,1.1716,1,0,7,7,14,1,stimuli/blank.png,gerecht,a,DR02RL,2023-08-20_17h20.02.891,openIAT,2023.1.3,Win32,59.89458553,
,,,,,,a,1,0.7658,,,,,,,,,0.7658,1,0,8,8,7,1,stimuli/blank.png,eigene,a,DR02RL,2023-08-20_17h20.02.891,openIAT,2023.1.3,Win32,59.89458553,
,,,,,,a,1,0.4657,,,,,,,,,0.4657,1,0,9,9,1,1,stimuli/blank.png,ich,a,DR02RL,2023-08-20_17h20.02.891,openIAT,2023.1.3,Win32,59.89458553,
,,,,,,l,1,0.5996,,,,,,,,,0.5996,1,0,10,10,0,1,stimuli/blank.png,andere,l,DR02RL,2023-08-20_17h20.02.891,openIAT,2023.1.3,Win32,59.89458553,
,,,,,,l,1,0.6472,,,,,,,,,0.6472,1,0,11,11,15,1,stimuli/blank.png,träge,l,DR02RL,2023-08-20_17h20.02.891,openIAT,2023.1.3,Win32,59.89458553,
,,,,,,l,1,0.9134,,,,,,,,,0.9134,1,0,12,12,2,1,stimuli/blank.png,ihr,l,DR02RL,2023-08-20_17h20.02.891,openIAT,2023.1.3,Win32,59.89458553,
,,,,,,a,1,0.6694,,,,,,,,,0.6694,1,0,13,13,16,1,stimuli/blank.png,begabt,a,DR02RL,2023-08-20_17h20.02.891,openIAT,2023.1.3,Win32,59.89458553,
,,,,,,l,1,0.5825,,,,,,,,,0.5825,1,0,14,14,8,1,stimuli/blank.png,eure,l,DR02RL,2023-08-20_17h20.02.891,openIAT,2023.1.3,Win32,59.89458553,
,,,,,,l,1,0.6187,,,,,,,,,0.6187,1,0,15,15,6,1,stimuli/blank.png,euch,l,DR02RL,2023-08-20_17h20.02.891,openIAT,2023.1.3,Win32,59.89458553,
,,,,,,l,1,1.0326,,,,,,,,,1.0326,1,0,16,16,17,1,stimuli/blank.png,eitel,l,DR02RL,2023-08-20_17h20.02.891,openIAT,2023.1.3,Win32,59.89458553,
,,,,,,a,1,0.6247,,,,,,,,,0.6247,1,0,17,17,10,1,stimuli/blank.png,aktiv,a,DR02RL,2023-08-20_17h20.02.891,openIAT,2023.1.3,Win32,59.89458553,
,,,,,,a,1,0.7657,,,,,,,,,0.7657,1,0,18,18,9,1,stimuli/blank.png,selbst,a,DR02RL,2023-08-20_17h20.02.891,openIAT,2023.1.3,Win32,59.89458553,
,,,,,,a,1,0.5866,,,,,,,,,0.5866,1,0,19,19,3,1,stimuli/blank.png,mir,a,DR02RL,2023-08-20_17h20.02.891,openIAT,2023.1.3,Win32,59.89458553,
,,,,,,l,1,0.6672,,,,,,,,,0.6672,1,0,0,0,2,1,stimuli/blank.png,ihr,l,DR02RL,2023-08-20_17h20.02.891,openIAT,2023.1.3,Win32,59.89458553,
,,,,,,a,1,0.5679,,,,,,,,,0.5679,1,0,1,1,21,1,stimuli/blank.png,ich,a,DR02RL,2023-08-20_17h20.02.891,openIAT,2023.1.3,Win32,59.89458553,
,,,,,,a,1,0.7447,,,,,,,,,0.7447,1,0,2,2,5,1,stimuli/blank.png,meine,a,DR02RL,2023-08-20_17h20.02.891,openIAT,2023.1.3,Win32,59.89458553,
,,,,,,a,1,0.8336,,,,,,,,,0.8336,1,0,3,3,30,1,stimuli/blank.png,aktiv,a,DR02RL,2023-08-20_17h20.02.891,openIAT,2023.1.3,Win32,59.89458553,
,,,,,,l,1,0.8172,,,,,,,,,0.8172,1,0,4,4,24,1,stimuli/blank.png,jene,l,DR02RL,2023-08-20_17h20.02.891,openIAT,2023.1.3,Win32,59.89458553,
,,,,,,l,1,0.5839,,,,,,,,,0.5839,1,0,5,5,33,1,stimuli/blank.png,verlogen,l,DR02RL,2023-08-20_17h20.02.891,openIAT,2023.1.3,Win32,59.89458553,
,,,,,,l,1,0.7667,,,,,,,,,0.7667,1,0,6,6,28,1,stimuli/blank.png,eure,l,DR02RL,2023-08-20_17h20.02.891,openIAT,2023.1.3,Win32,59.89458553,
,,,,,,a,1,0.5819,,,,,,,,,0.5819,1,0,7,7,9,1,stimuli/blank.png,selbst,a,DR02RL,2023-08-20_17h20.02.891,openIAT,2023.1.3,Win32,59.89458553,
,,,,,,l,1,0.6341,,,,,,,,,0.6341,1,0,8,8,8,1,stimuli/blank.png,eure,l,DR02RL,2023-08-20_17h20.02.891,openIAT,2023.1.3,Win32,59.89458553,
,,,,,,a,1,0.6002,,,,,,,,,0.6002,1,0,9,9,3,1,stimuli/blank.png,mir,a,DR02RL,2023-08-20_17h20.02.891,openIAT,2023.1.3,Win32,59.89458553,
,,,,,,a,1,0.7173,,,,,,,,,0.7173,1,0,10,10,36,1,stimuli/blank.png,begabt,a,DR02RL,2023-08-20_17h20.02.891,openIAT,2023.1.3,Win32,59.89458553,
,,,,,,a,1,0.8348,,,,,,,,,0.8348,1,0,11,11,27,1,stimuli/blank.png,eigene,a,DR02RL,2023-08-20_17h20.02.891,openIAT,2023.1.3,Win32,59.89458553,
,,,,,,a,1,0.6028,,,,,,,,,0.6028,1,0,12,12,23,1,stimuli/blank.png,mir,a,DR02RL,2023-08-20_17h20.02.891,openIAT,2023.1.3,Win32,59.89458553,
,,,,,,l,1,0.6174,,,,,,,,,0.6174,1,0,13,13,37,1,stimuli/blank.png,eitel,l,DR02RL,2023-08-20_17h20.02.891,openIAT,2023.1.3,Win32,59.89458553,
,,,,,,l,1,0.8174,,,,,,,,,0.8174,1,0,14,14,0,1,stimuli/blank.png,andere,l,DR02RL,2023-08-20_17h20.02.891,openIAT,2023.1.3,Win32,59.89458553,
,,,,,,l,1,0.8505,,,,,,,,,0.8505,1,0,15,15,17,1,stimuli/blank.png,eitel,l,DR02RL,2023-08-20_17h20.02.891,openIAT,2023.1.3,Win32,59.89458553,
,,,,,,l,1,0.6424,,,,,,,,,0.6424,1,0,16,16,15,1,stimuli/blank.png,träge,l,DR02RL,2023-08-20_17h20.02.891,openIAT,2023.1.3,Win32,59.89458553,
,,,,,,l,1,0.7502,,,,,,,,,0.7502,1,0,17,17,22,1,stimuli/blank.png,ihr,l,DR02RL,2023-08-20_17h20.02.891,openIAT,2023.1.3,Win32,59.89458553,
,,,,,,a,1,0.6341,,,,,,,,,0.6341,1,0,18,18,10,1,stimuli/blank.png,aktiv,a,DR02RL,2023-08-20_17h20.02.891,openIAT,2023.1.3,Win32,59.89458553,
,,,,,,l,1,0.7337,,,,,,,,,0.7337,1,0,19,19,39,1,stimuli/blank.png,lustlos,l,DR02RL,2023-08-20_17h20.02.891,openIAT,2023.1.3,Win32,59.89458553,
,,,,,,a,1,0.6871,,,,,,,,,0.6871,1,0,20,20,18,1,stimuli/blank.png,human,a,DR02RL,2023-08-20_17h20.02.891,openIAT,2023.1.3,Win32,59.89458553,
,,,,,,l,1,0.6508,,,,,,,,,0.6508,1,0,21,21,6,1,stimuli/blank.png,euch,l,DR02RL,2023-08-20_17h20.02.891,openIAT,2023.1.3,Win32,59.89458553,
,,,,,,a,1,0.7174,,,,,,,,,0.7174,1,0,22,22,29,1,stimuli/blank.png,selbst,a,DR02RL,2023-08-20_17h20.02.891,openIAT,2023.1.3,Win32,59.89458553,
,,,,,,a,1,1.0173,,,,,,,,,1.0173,1,0,23,23,32,1,stimuli/blank.png,fröhlich,a,DR02RL,2023-08-20_17h20.02.891,openIAT,2023.1.3,Win32,59.89458553,
,,,,,,a,1,0.6507,,,,,,,,,0.6507,1,0,24,24,34,1,stimuli/blank.png,gerecht,a,DR02RL,2023-08-20_17h20.02.891,openIAT,2023.1.3,Win32,59.89458553,
,,,,,,a,1,0.834,,,,,,,,,0.834,1,0,25,25,16,1,stimuli/blank.png,begabt,a,DR02RL,2023-08-20_17h20.02.891,openIAT,2023.1.3,Win32,59.89458553,
,,,,,,l,1,0.5839,,,,,,,,,0.5839,1,0,26,26,13,1,stimuli/blank.png,verlogen,l,DR02RL,2023-08-20_17h20.02.891,openIAT,2023.1.3,Win32,59.89458553,
,,,,,,l,1,0.5318,,,,,,,,,0.5318,1,0,27,27,31,1,stimuli/blank.png,brutal,l,DR02RL,2023-08-20_17h20.02.891,openIAT,2023.1.3,Win32,59.89458553,
,,,,,,a,1,0.6341,,,,,,,,,0.6341,1,0,28,28,25,1,stimuli/blank.png,meine,a,DR02RL,2023-08-20_17h20.02.891,openIAT,2023.1.3,Win32,59.89458553,
,,,,,,a,1,0.5651,,,,,,,,,0.5651,1,0,29,29,38,1,stimuli/blank.png,human,a,DR02RL,2023-08-20_17h20.02.891,openIAT,2023.1.3,Win32,59.89458553,
,,,,,,l,1,0.6005,,,,,,,,,0.6005,1,0,30,30,20,1,stimuli/blank.png,andere,l,DR02RL,2023-08-20_17h20.02.891,openIAT,2023.1.3,Win32,59.89458553,
,,,,,,a,1,0.5838,,,,,,,,,0.5838,1,0,31,31,1,1,stimuli/blank.png,ich,a,DR02RL,2023-08-20_17h20.02.891,openIAT,2023.1.3,Win32,59.89458553,
,,,,,,l,1,0.5504,,,,,,,,,0.5504,1,0,32,32,35,1,stimuli/blank.png,träge,l,DR02RL,2023-08-20_17h20.02.891,openIAT,2023.1.3,Win32,59.89458553,
,,,,,,l,1,0.5674,,,,,,,,,0.5674,1,0,33,33,19,1,stimuli/blank.png,lustlos,l,DR02RL,2023-08-20_17h20.02.891,openIAT,2023.1.3,Win32,59.89458553,
,,,,,,a,1,0.7831,,,,,,,,,0.7831,1,0,34,34,7,1,stimuli/blank.png,eigene,a,DR02RL,2023-08-20_17h20.02.891,openIAT,2023.1.3,Win32,59.89458553,
,,,,,,a,1,0.9343,,,,,,,,,0.9343,1,0,35,35,14,1,stimuli/blank.png,gerecht,a,DR02RL,2023-08-20_17h20.02.891,openIAT,2023.1.3,Win32,59.89458553,
,,,,,,l,1,0.856,,,,,,,,,0.856,1,0,36,36,4,1,stimuli/blank.png,jene,l,DR02RL,2023-08-20_17h20.02.891,openIAT,2023.1.3,Win32,59.89458553,
,,,,,,l,1,0.6751,,,,,,,,,0.6751,1,0,37,37,11,1,stimuli/blank.png,brutal,l,DR02RL,2023-08-20_17h20.02.891,openIAT,2023.1.3,Win32,59.89458553,
,,,,,,l,1,0.915,,,,,,,,,0.915,1,0,38,38,26,1,stimuli/blank.png,euch,l,DR02RL,2023-08-20_17h20.02.891,openIAT,2023.1.3,Win32,59.89458553,
,,,,,,a,1,0.8507,,,,,,,,,0.8507,1,0,39,39,12,1,stimuli/blank.png,fröhlich,a,DR02RL,2023-08-20_17h20.02.891,openIAT,2023.1.3,Win32,59.89458553,
,,,,,,a,1,0.6982,,,,,,,,,0.6982,1,0,0,0,10,1,stimuli/blank.png,andere,a,DR02RL,2023-08-20_17h20.02.891,openIAT,2023.1.3,Win32,59.89458553,
,,,,,,l,1,0.5662,,,,,,,,,0.5662,1,0,1,1,13,1,stimuli/blank.png,mir,l,DR02RL,2023-08-20_17h20.02.891,openIAT,2023.1.3,Win32,59.89458553,
,,,,,,a,1,0.5408,,,,,,,,,0.5408,1,0,2,2,6,1,stimuli/blank.png,euch,a,DR02RL,2023-08-20_17h20.02.891,openIAT,2023.1.3,Win32,59.89458553,
,,,,,,l,1,0.4474,,,,,,,,,0.4474,1,0,3,3,5,1,stimuli/blank.png,meine,l,DR02RL,2023-08-20_17h20.02.891,openIAT,2023.1.3,Win32,59.89458553,
,,,,,,a,1,0.6541,,,,,,,,,0.6541,1,0,4,4,12,1,stimuli/blank.png,ihr,a,DR02RL,2023-08-20_17h20.02.891,openIAT,2023.1.3,Win32,59.89458553,
,,,,,,l,1,0.5492,,,,,,,,,0.5492,1,0,5,5,15,1,stimuli/blank.png,meine,l,DR02RL,2023-08-20_17h20.02.891,openIAT,2023.1.3,Win32,59.89458553,
,,,,,,l,1,0.5543,,,,,,,,,0.5543,1,0,6,6,17,1,stimuli/blank.png,eigene,l,DR02RL,2023-08-20_17h20.02.891,openIAT,2023.1.3,Win32,59.89458553,
,,,,,,l,1,0.5391,,,,,,,,,0.5391,1,0,7,7,7,1,stimuli/blank.png,eigene,l,DR02RL,2023-08-20_17h20.02.891,openIAT,2023.1.3,Win32,59.89458553,
,,,,,,a,1,0.5569,,,,,,,,,0.5569,1,0,8,8,8,1,stimuli/blank.png,eure,a,DR02RL,2023-08-20_17h20.02.891,openIAT,2023.1.3,Win32,59.89458553,
,,,,,,l,1,0.6468,,,,,,,,,0.6468,1,0,9,9,19,1,stimuli/blank.png,selbst,l,DR02RL,2023-08-20_17h20.02.891,openIAT,2023.1.3,Win32,59.89458553,
,,,,,,l,1,0.5659,,,,,,,,,0.5659,1,0,10,10,1,1,stimuli/blank.png,ich,l,DR02RL,2023-08-20_17h20.02.891,openIAT,2023.1.3,Win32,59.89458553,
,,,,,,a,1,0.5823,,,,,,,,,0.5823,1,0,11,11,4,1,stimuli/blank.png,jene,a,DR02RL,2023-08-20_17h20.02.891,openIAT,2023.1.3,Win32,59.89458553,
,,,,,,a,1,0.9816,,,,,,,,,0.9816,1,0,12,12,18,1,stimuli/blank.png,eure,a,DR02RL,2023-08-20_17h20.02.891,openIAT,2023.1.3,Win32,59.89458553,
,,,,,,l,1,0.5522,,,,,,,,,0.5522,1,0,13,13,9,1,stimuli/blank.png,selbst,l,DR02RL,2023-08-20_17h20.02.891,openIAT,2023.1.3,Win32,59.89458553,
,,,,,,a,1,0.7743,,,,,,,,,0.7743,1,0,14,14,0,1,stimuli/blank.png,andere,a,DR02RL,2023-08-20_17h20.02.891,openIAT,2023.1.3,Win32,59.89458553,
,,,,,,l,1,0.6328,,,,,,,,,0.6328,1,0,15,15,11,1,stimuli/blank.png,ich,l,DR02RL,2023-08-20_17h20.02.891,openIAT,2023.1.3,Win32,59.89458553,
,,,,,,a,1,0.7799,,,,,,,,,0.7799,1,0,16,16,2,1,stimuli/blank.png,ihr,a,DR02RL,2023-08-20_17h20.02.891,openIAT,2023.1.3,Win32,59.89458553,
,,,,,,a,1,0.5044,,,,,,,,,0.5044,1,0,17,17,16,1,stimuli/blank.png,euch,a,DR02RL,2023-08-20_17h20.02.891,openIAT,2023.1.3,Win32,59.89458553,
,,,,,,a,1,0.806,,,,,,,,,0.806,1,0,18,18,14,1,stimuli/blank.png,jene,a,DR02RL,2023-08-20_17h20.02.891,openIAT,2023.1.3,Win32,59.89458553,
,,,,,,l,1,0.6029,,,,,,,,,0.6029,1,0,19,19,3,1,stimuli/blank.png,mir,l,DR02RL,2023-08-20_17h20.02.891,openIAT,2023.1.3,Win32,59.89458553,
,,,,,,l,1,1.3732,,,,,,,,,1.3732,1,0,0,0,11,1,stimuli/blank.png,brutal,l,DR02RL,2023-08-20_17h20.02.891,openIAT,2023.1.3,Win32,59.89458553,
,,,,,,l,1,0.774,,,,,,,,,0.774,1,0,1,1,19,1,stimuli/blank.png,lustlos,l,DR02RL,2023-08-20_17h20.02.891,openIAT,2023.1.3,Win32,59.89458553,
,,,,,,l,1,0.6998,,,,,,,,,0.6998,1,0,2,2,1,1,stimuli/blank.png,ich,l,DR02RL,2023-08-20_17h20.02.891,openIAT,2023.1.3,Win32,59.89458553,
,,,,,,a,1,0.7162,,,,,,,,,0.7162,1,0,3,3,8,1,stimuli/blank.png,eure,a,DR02RL,2023-08-20_17h20.02.891,openIAT,2023.1.3,Win32,59.89458553,
,,,,,,l,1,1.1157,,,,,,,,,1.1157,1,0,4,4,3,1,stimuli/blank.png,mir,l,DR02RL,2023-08-20_17h20.02.891,openIAT,2023.1.3,Win32,59.89458553,
,,,,,,a,1,0.7324,,,,,,,,,0.7324,1,0,5,5,4,1,stimuli/blank.png,jene,a,DR02RL,2023-08-20_17h20.02.891,openIAT,2023.1.3,Win32,59.89458553,
,,,,,,l,1,0.6825,,,,,,,,,0.6825,1,0,6,6,15,1,stimuli/blank.png,träge,l,DR02RL,2023-08-20_17h20.02.891,openIAT,2023.1.3,Win32,59.89458553,
,,,,,,a,1,1.7657,,,,,,,,,1.7657,1,0,7,7,10,1,stimuli/blank.png,aktiv,a,DR02RL,2023-08-20_17h20.02.891,openIAT,2023.1.3,Win32,59.89458553,
,,,,,,a,1,0.8322,,,,,,,,,0.8322,1,0,8,8,6,1,stimuli/blank.png,euch,a,DR02RL,2023-08-20_17h20.02.891,openIAT,2023.1.3,Win32,59.89458553,
,,,,,,a,1,0.586,,,,,,,,,0.586,1,0,9,9,2,1,stimuli/blank.png,ihr,a,DR02RL,2023-08-20_17h20.02.891,openIAT,2023.1.3,Win32,59.89458553,
,,,,,,l,1,0.7993,,,,,,,,,0.7993,1,0,10,10,9,1,stimuli/blank.png,selbst,l,DR02RL,2023-08-20_17h20.02.891,openIAT,2023.1.3,Win32,59.89458553,
,,,,,,a,1,0.7323,,,,,,,,,0.7323,1,0,11,11,0,1,stimuli/blank.png,andere,a,DR02RL,2023-08-20_17h20.02.891,openIAT,2023.1.3,Win32,59.89458553,
,,,,,,l,1,0.7157,,,,,,,,,0.7157,1,0,12,12,5,1,stimuli/blank.png,meine,l,DR02RL,2023-08-20_17h20.02.891,openIAT,2023.1.3,Win32,59.89458553,
,,,,,,l,1,1.0563,,,,,,,,,1.0563,1,0,13,13,17,1,stimuli/blank.png,eitel,l,DR02RL,2023-08-20_17h20.02.891,openIAT,2023.1.3,Win32,59.89458553,
,,,,,,a,1,0.525,,,,,,,,,0.525,1,0,14,14,12,1,stimuli/blank.png,fröhlich,a,DR02RL,2023-08-20_17h20.02.891,openIAT,2023.1.3,Win32,59.89458553,
,,,,,,l,1,0.6255,,,,,,,,,0.6255,1,0,15,15,13,1,stimuli/blank.png,verlogen,l,DR02RL,2023-08-20_17h20.02.891,openIAT,2023.1.3,Win32,59.89458553,
,,,,,,a,1,1.3982,,,,,,,,,1.3982,1,0,16,16,16,1,stimuli/blank.png,begabt,a,DR02RL,2023-08-20_17h20.02.891,openIAT,2023.1.3,Win32,59.89458553,
,,,,,,a,1,0.8489,,,,,,,,,0.8489,1,0,17,17,18,1,stimuli/blank.png,human,a,DR02RL,2023-08-20_17h20.02.891,openIAT,2023.1.3,Win32,59.89458553,
,,,,,,a,1,0.6371,,,,,,,,,0.6371,1,0,18,18,14,1,stimuli/blank.png,gerecht,a,DR02RL,2023-08-20_17h20.02.891,openIAT,2023.1.3,Win32,59.89458553,
,,,,,,l,1,0.8202,,,,,,,,,0.8202,1,0,19,19,7,1,stimuli/blank.png,eigene,l,DR02RL,2023-08-20_17h20.02.891,openIAT,2023.1.3,Win32,59.89458553,
,,,,,,a,1,0.7499,,,,,,,,,0.7499,1,0,0,0,20,1,stimuli/blank.png,andere,a,DR02RL,2023-08-20_17h20.02.891,openIAT,2023.1.3,Win32,59.89458553,
,,,,,,a,1,0.578,,,,,,,,,0.578,1,0,1,1,38,1,stimuli/blank.png,human,a,DR02RL,2023-08-20_17h20.02.891,openIAT,2023.1.3,Win32,59.89458553,
,,,,,,a,1,0.6453,,,,,,,,,0.6453,1,0,2,2,12,1,stimuli/blank.png,fröhlich,a,DR02RL,2023-08-20_17h20.02.891,openIAT,2023.1.3,Win32,59.89458553,
,,,,,,a,1,1.0844,,,,,,,,,1.0844,1,0,3,3,14,1,stimuli/blank.png,gerecht,a,DR02RL,2023-08-20_17h20.02.891,openIAT,2023.1.3,Win32,59.89458553,
,,,,,,a,1,0.9337,,,,,,,,,0.9337,1,0,4,4,16,1,stimuli/blank.png,begabt,a,DR02RL,2023-08-20_17h20.02.891,openIAT,2023.1.3,Win32,59.89458553,
,,,,,,l,1,0.5671,,,,,,,,,0.5671,1,0,5,5,19,1,stimuli/blank.png,lustlos,l,DR02RL,2023-08-20_17h20.02.891,openIAT,2023.1.3,Win32,59.89458553,
,,,,,,a,1,0.5842,,,,,,,,,0.5842,1,0,6,6,26,1,stimuli/blank.png,euch,a,DR02RL,2023-08-20_17h20.02.891,openIAT,2023.1.3,Win32,59.89458553,
,,,,,,l,1,0.866,,,,,,,,,0.866,1,0,7,7,21,1,stimuli/blank.png,ich,l,DR02RL,2023-08-20_17h20.02.891,openIAT,2023.1.3,Win32,59.89458553,
,,,,,,a,0,0.6009,,,,,,,,,0.6009,0,0,8,8,7,1,stimuli/blank.png,eigene,l,DR02RL,2023-08-20_17h20.02.891,openIAT,2023.1.3,Win32,59.89458553,
,,,,,,a,1,1.5845,,,,,,,,,1.5845,1,0,9,9,10,1,stimuli/blank.png,aktiv,a,DR02RL,2023-08-20_17h20.02.891,openIAT,2023.1.3,Win32,59.89458553,
,,,,,,l,1,0.8839,,,,,,,,,0.8839,1,0,10,10,37,1,stimuli/blank.png,eitel,l,DR02RL,2023-08-20_17h20.02.891,openIAT,2023.1.3,Win32,59.89458553,
,,,,,,l,1,0.8508,,,,,,,,,0.8508,1,0,11,11,5,1,stimuli/blank.png,meine,l,DR02RL,2023-08-20_17h20.02.891,openIAT,2023.1.3,Win32,59.89458553,
,,,,,,l,1,0.9339,,,,,,,,,0.9339,1,0,12,12,9,1,stimuli/blank.png,selbst,l,DR02RL,2023-08-20_17h20.02.891,openIAT,2023.1.3,Win32,59.89458553,
,,,,,,l,1,0.6333,,,,,,,,,0.6333,1,0,13,13,15,1,stimuli/blank.png,träge,l,DR02RL,2023-08-20_17h20.02.891,openIAT,2023.1.3,Win32,59.89458553,
,,,,,,a,1,0.9673,,,,,,,,,0.9673,1,0,14,14,36,1,stimuli/blank.png,begabt,a,DR02RL,2023-08-20_17h20.02.891,openIAT,2023.1.3,Win32,59.89458553,
,,,,,,a,1,0.9839,,,,,,,,,0.9839,1,0,15,15,0,1,stimuli/blank.png,andere,a,DR02RL,2023-08-20_17h20.02.891,openIAT,2023.1.3,Win32,59.89458553,
,,,,,,a,1,0.6563,,,,,,,,,0.6563,1,0,16,16,18,1,stimuli/blank.png,human,a,DR02RL,2023-08-20_17h20.02.891,openIAT,2023.1.3,Win32,59.89458553,
,,,,,,l,1,0.6378,,,,,,,,,0.6378,1,0,17,17,31,1,stimuli/blank.png,brutal,l,DR02RL,2023-08-20_17h20.02.891,openIAT,2023.1.3,Win32,59.89458553,
,,,,,,a,1,0.5676,,,,,,,,,0.5676,1,0,18,18,8,1,stimuli/blank.png,eure,a,DR02RL,2023-08-20_17h20.02.891,openIAT,2023.1.3,Win32,59.89458553,
,,,,,,a,1,0.7009,,,,,,,,,0.7009,1,0,19,19,24,1,stimuli/blank.png,jene,a,DR02RL,2023-08-20_17h20.02.891,openIAT,2023.1.3,Win32,59.89458553,
,,,,,,a,1,0.8173,,,,,,,,,0.8173,1,0,20,20,2,1,stimuli/blank.png,ihr,a,DR02RL,2023-08-20_17h20.02.891,openIAT,2023.1.3,Win32,59.89458553,
,,,,,,a,1,0.534,,,,,,,,,0.534,1,0,21,21,22,1,stimuli/blank.png,ihr,a,DR02RL,2023-08-20_17h20.02.891,openIAT,2023.1.3,Win32,59.89458553,
,,,,,,a,1,0.8673,,,,,,,,,0.8673,1,0,22,22,34,1,stimuli/blank.png,gerecht,a,DR02RL,2023-08-20_17h20.02.891,openIAT,2023.1.3,Win32,59.89458553,
,,,,,,a,1,0.9006,,,,,,,,,0.9006,1,0,23,23,6,1,stimuli/blank.png,euch,a,DR02RL,2023-08-20_17h20.02.891,openIAT,2023.1.3,Win32,59.89458553,
,,,,,,a,1,0.5009,,,,,,,,,0.5009,1,0,24,24,30,1,stimuli/blank.png,aktiv,a,DR02RL,2023-08-20_17h20.02.891,openIAT,2023.1.3,Win32,59.89458553,
,,,,,,l,1,0.8579,,,,,,,,,0.8579,1,0,25,25,27,1,stimuli/blank.png,eigene,l,DR02RL,2023-08-20_17h20.02.891,openIAT,2023.1.3,Win32,59.89458553,
,,,,,,l,1,0.5984,,,,,,,,,0.5984,1,0,26,26,13,1,stimuli/blank.png,verlogen,l,DR02RL,2023-08-20_17h20.02.891,openIAT,2023.1.3,Win32,59.89458553,
,,,,,,l,1,0.7566,,,,,,,,,0.7566,1,0,27,27,11,1,stimuli/blank.png,brutal,l,DR02RL,2023-08-20_17h20.02.891,openIAT,2023.1.3,Win32,59.89458553,
,,,,,,l,1,0.6339,,,,,,,,,0.6339,1,0,28,28,1,1,stimuli/blank.png,ich,l,DR02RL,2023-08-20_17h20.02.891,openIAT,2023.1.3,Win32,59.89458553,
,,,,,,l,1,0.7847,,,,,,,,,0.7847,1,0,29,29,23,1,stimuli/blank.png,mir,l,DR02RL,2023-08-20_17h20.02.891,openIAT,2023.1.3,Win32,59.89458553,
,,,,,,l,1,1.3168,,,,,,,,,1.3168,1,0,30,30,17,1,stimuli/blank.png,eitel,l,DR02RL,2023-08-20_17h20.02.891,openIAT,2023.1.3,Win32,59.89458553,
,,,,,,l,1,0.8018,,,,,,,,,0.8018,1,0,31,31,29,1,stimuli/blank.png,selbst,l,DR02RL,2023-08-20_17h20.02.891,openIAT,2023.1.3,Win32,59.89458553,
,,,,,,l,1,0.6008,,,,,,,,,0.6008,1,0,32,32,25,1,stimuli/blank.png,meine,l,DR02RL,2023-08-20_17h20.02.891,openIAT,2023.1.3,Win32,59.89458553,
,,,,,,a,1,0.8334,,,,,,,,,0.8334,1,0,33,33,32,1,stimuli/blank.png,fröhlich,a,DR02RL,2023-08-20_17h20.02.891,openIAT,2023.1.3,Win32,59.89458553,
,,,,,,l,1,0.7008,,,,,,,,,0.7008,1,0,34,34,39,1,stimuli/blank.png,lustlos,l,DR02RL,2023-08-20_17h20.02.891,openIAT,2023.1.3,Win32,59.89458553,
,,,,,,l,1,0.8879,,,,,,,,,0.8879,1,0,35,35,33,1,stimuli/blank.png,verlogen,l,DR02RL,2023-08-20_17h20.02.891,openIAT,2023.1.3,Win32,59.89458553,
,,,,,,a,1,0.8172,,,,,,,,,0.8172,1,0,36,36,4,1,stimuli/blank.png,jene,a,DR02RL,2023-08-20_17h20.02.891,openIAT,2023.1.3,Win32,59.89458553,
,,,,,,a,1,0.9836,,,,,,,,,0.9836,1,0,37,37,28,1,stimuli/blank.png,eure,a,DR02RL,2023-08-20_17h20.02.891,openIAT,2023.1.3,Win32,59.89458553,
,,,,,,l,1,0.6014,,,,,,,,,0.6014,1,0,38,38,3,1,stimuli/blank.png,mir,l,DR02RL,2023-08-20_17h20.02.891,openIAT,2023.1.3,Win32,59.89458553,
,,,,,,l,1,0.6838,,,,,,,,,0.6838,1,0,39,39,35,1,stimuli/blank.png,träge,l,DR02RL,2023-08-20_17h20.02.891,openIAT,2023.1.3,Win32,59.89458553,
,,,,,,,,,,,,,,,,,,,,,,,,,,,DR02RL,2023-08-20_17h20.02.891,openIAT,2023.1.3,Win32,59.89458553,
