instr_done_touch.x,instr_done_touch.y,instr_done_touch.leftButton,instr_done_touch.midButton,instr_done_touch.rightButton,key_resp.keys,key_resp.corr,key_resp.rt,key_resp.duration,touch_resp.x,touch_resp.y,touch_resp.leftButton,touch_resp.midButton,touch_resp.rightButton,touch_resp.time,touch_resp.clicked_name,rt,corr,trials.thisRepN,trials.thisTrialN,trials.thisN,trials.thisIndex,trials.ran,stimImage,stimWord,CorrAns,participant,date,expName,psychopyVersion,OS,frameRate,return_tic
0.839814815,-0.036111111,0,0,0,l,1,0.817,,,,,,,,,0.817,1,0,0,0,15,1,stimuli/blank.png,träge,l,DR07EA,2023-08-12_13h05.44.604,openIAT,2023.1.3,Win32,59.95203837,
,,,,,a,1,0.983,,,,,,,,,0.983,1,0,1,1,12,1,stimuli/blank.png,fröhlich,a,DR07EA,2023-08-12_13h05.44.604,openIAT,2023.1.3,Win32,59.95203837,
,,,,,a,1,0.7341,,,,,,,,,0.7341,1,0,2,2,0,1,stimuli/blank.png,aktiv,a,DR07EA,2023-08-12_13h05.44.604,openIAT,2023.1.3,Win32,59.95203837,
,,,,,a,1,0.6032,,,,,,,,,0.6032,1,0,3,3,16,1,stimuli/blank.png,begabt,a,DR07EA,2023-08-12_13h05.44.604,openIAT,2023.1.3,Win32,59.95203837,
,,,,,a,1,0.5847,,,,,,,,,0.5847,1,0,4,4,18,1,stimuli/blank.png,human,a,DR07EA,2023-08-12_13h05.44.604,openIAT,2023.1.3,Win32,59.95203837,
,,,,,l,1,0.501,,,,,,,,,0.501,1,0,5,5,3,1,stimuli/blank.png,verlogen,l,DR07EA,2023-08-12_13h05.44.604,openIAT,2023.1.3,Win32,59.95203837,
,,,,,l,1,0.6535,,,,,,,,,0.6535,1,0,6,6,9,1,stimuli/blank.png,lustlos,l,DR07EA,2023-08-12_13h05.44.604,openIAT,2023.1.3,Win32,59.95203837,
,,,,,l,1,0.4836,,,,,,,,,0.4836,1,0,7,7,19,1,stimuli/blank.png,lustlos,l,DR07EA,2023-08-12_13h05.44.604,openIAT,2023.1.3,Win32,59.95203837,
,,,,,a,1,0.538,,,,,,,,,0.538,1,0,8,8,6,1,stimuli/blank.png,begabt,a,DR07EA,2023-08-12_13h05.44.604,openIAT,2023.1.3,Win32,59.95203837,
,,,,,a,0,0.5839,,,,,,,,,0.5839,0,0,9,9,1,1,stimuli/blank.png,brutal,l,DR07EA,2023-08-12_13h05.44.604,openIAT,2023.1.3,Win32,59.95203837,
,,,,,l,1,0.7335,,,,,,,,,0.7335,1,0,10,10,7,1,stimuli/blank.png,eitel,l,DR07EA,2023-08-12_13h05.44.604,openIAT,2023.1.3,Win32,59.95203837,
,,,,,l,1,0.5676,,,,,,,,,0.5676,1,0,11,11,5,1,stimuli/blank.png,träge,l,DR07EA,2023-08-12_13h05.44.604,openIAT,2023.1.3,Win32,59.95203837,
,,,,,l,1,0.6166,,,,,,,,,0.6166,1,0,12,12,11,1,stimuli/blank.png,brutal,l,DR07EA,2023-08-12_13h05.44.604,openIAT,2023.1.3,Win32,59.95203837,
,,,,,a,1,0.6575,,,,,,,,,0.6575,1,0,13,13,4,1,stimuli/blank.png,gerecht,a,DR07EA,2023-08-12_13h05.44.604,openIAT,2023.1.3,Win32,59.95203837,
,,,,,a,1,0.5724,,,,,,,,,0.5724,1,0,14,14,14,1,stimuli/blank.png,gerecht,a,DR07EA,2023-08-12_13h05.44.604,openIAT,2023.1.3,Win32,59.95203837,
,,,,,a,1,0.4757,,,,,,,,,0.4757,1,0,15,15,10,1,stimuli/blank.png,aktiv,a,DR07EA,2023-08-12_13h05.44.604,openIAT,2023.1.3,Win32,59.95203837,
,,,,,a,1,0.5667,,,,,,,,,0.5667,1,0,16,16,2,1,stimuli/blank.png,fröhlich,a,DR07EA,2023-08-12_13h05.44.604,openIAT,2023.1.3,Win32,59.95203837,
,,,,,a,1,0.5196,,,,,,,,,0.5196,1,0,17,17,8,1,stimuli/blank.png,human,a,DR07EA,2023-08-12_13h05.44.604,openIAT,2023.1.3,Win32,59.95203837,
,,,,,l,1,0.5752,,,,,,,,,0.5752,1,0,18,18,13,1,stimuli/blank.png,verlogen,l,DR07EA,2023-08-12_13h05.44.604,openIAT,2023.1.3,Win32,59.95203837,
,,,,,l,1,0.5567,,,,,,,,,0.5567,1,0,19,19,17,1,stimuli/blank.png,eitel,l,DR07EA,2023-08-12_13h05.44.604,openIAT,2023.1.3,Win32,59.95203837,
,,,,,a,1,0.5835,,,,,,,,,0.5835,1,0,0,0,11,1,stimuli/blank.png,ich,a,DR07EA,2023-08-12_13h05.44.604,openIAT,2023.1.3,Win32,59.95203837,
,,,,,a,1,0.6513,,,,,,,,,0.6513,1,0,1,1,7,1,stimuli/blank.png,eigene,a,DR07EA,2023-08-12_13h05.44.604,openIAT,2023.1.3,Win32,59.95203837,
,,,,,a,1,0.4716,,,,,,,,,0.4716,1,0,2,2,13,1,stimuli/blank.png,mir,a,DR07EA,2023-08-12_13h05.44.604,openIAT,2023.1.3,Win32,59.95203837,
,,,,,l,1,0.6869,,,,,,,,,0.6869,1,0,3,3,14,1,stimuli/blank.png,jene,l,DR07EA,2023-08-12_13h05.44.604,openIAT,2023.1.3,Win32,59.95203837,
,,,,,a,0,0.6342,,,,,,,,,0.6342,0,0,4,4,0,1,stimuli/blank.png,andere,l,DR07EA,2023-08-12_13h05.44.604,openIAT,2023.1.3,Win32,59.95203837,
,,,,,l,1,0.6836,,,,,,,,,0.6836,1,0,5,5,16,1,stimuli/blank.png,euch,l,DR07EA,2023-08-12_13h05.44.604,openIAT,2023.1.3,Win32,59.95203837,
,,,,,a,1,0.6043,,,,,,,,,0.6043,1,0,6,6,5,1,stimuli/blank.png,meine,a,DR07EA,2023-08-12_13h05.44.604,openIAT,2023.1.3,Win32,59.95203837,
,,,,,a,1,0.5705,,,,,,,,,0.5705,1,0,7,7,15,1,stimuli/blank.png,meine,a,DR07EA,2023-08-12_13h05.44.604,openIAT,2023.1.3,Win32,59.95203837,
,,,,,l,1,0.6722,,,,,,,,,0.6722,1,0,8,8,10,1,stimuli/blank.png,andere,l,DR07EA,2023-08-12_13h05.44.604,openIAT,2023.1.3,Win32,59.95203837,
,,,,,l,1,0.6006,,,,,,,,,0.6006,1,0,9,9,6,1,stimuli/blank.png,euch,l,DR07EA,2023-08-12_13h05.44.604,openIAT,2023.1.3,Win32,59.95203837,
,,,,,a,1,0.708,,,,,,,,,0.708,1,0,10,10,17,1,stimuli/blank.png,eigene,a,DR07EA,2023-08-12_13h05.44.604,openIAT,2023.1.3,Win32,59.95203837,
,,,,,a,1,0.5412,,,,,,,,,0.5412,1,0,11,11,1,1,stimuli/blank.png,ich,a,DR07EA,2023-08-12_13h05.44.604,openIAT,2023.1.3,Win32,59.95203837,
,,,,,a,1,0.5414,,,,,,,,,0.5414,1,0,12,12,3,1,stimuli/blank.png,mir,a,DR07EA,2023-08-12_13h05.44.604,openIAT,2023.1.3,Win32,59.95203837,
,,,,,a,1,0.6665,,,,,,,,,0.6665,1,0,13,13,9,1,stimuli/blank.png,selbst,a,DR07EA,2023-08-12_13h05.44.604,openIAT,2023.1.3,Win32,59.95203837,
,,,,,l,1,0.6219,,,,,,,,,0.6219,1,0,14,14,4,1,stimuli/blank.png,jene,l,DR07EA,2023-08-12_13h05.44.604,openIAT,2023.1.3,Win32,59.95203837,
,,,,,l,1,0.6331,,,,,,,,,0.6331,1,0,15,15,12,1,stimuli/blank.png,ihr,l,DR07EA,2023-08-12_13h05.44.604,openIAT,2023.1.3,Win32,59.95203837,
,,,,,l,1,0.4336,,,,,,,,,0.4336,1,0,16,16,2,1,stimuli/blank.png,ihr,l,DR07EA,2023-08-12_13h05.44.604,openIAT,2023.1.3,Win32,59.95203837,
,,,,,a,1,0.626,,,,,,,,,0.626,1,0,17,17,19,1,stimuli/blank.png,selbst,a,DR07EA,2023-08-12_13h05.44.604,openIAT,2023.1.3,Win32,59.95203837,
,,,,,l,1,0.6177,,,,,,,,,0.6177,1,0,18,18,18,1,stimuli/blank.png,eure,l,DR07EA,2023-08-12_13h05.44.604,openIAT,2023.1.3,Win32,59.95203837,
,,,,,l,1,0.5851,,,,,,,,,0.5851,1,0,19,19,8,1,stimuli/blank.png,eure,l,DR07EA,2023-08-12_13h05.44.604,openIAT,2023.1.3,Win32,59.95203837,
,,,,,a,1,0.6168,,,,,,,,,0.6168,1,0,0,0,16,1,stimuli/blank.png,begabt,a,DR07EA,2023-08-12_13h05.44.604,openIAT,2023.1.3,Win32,59.95203837,
,,,,,l,1,0.5707,,,,,,,,,0.5707,1,0,1,1,11,1,stimuli/blank.png,brutal,l,DR07EA,2023-08-12_13h05.44.604,openIAT,2023.1.3,Win32,59.95203837,
,,,,,l,1,0.5584,,,,,,,,,0.5584,1,0,2,2,19,1,stimuli/blank.png,lustlos,l,DR07EA,2023-08-12_13h05.44.604,openIAT,2023.1.3,Win32,59.95203837,
,,,,,l,1,0.6666,,,,,,,,,0.6666,1,0,3,3,13,1,stimuli/blank.png,verlogen,l,DR07EA,2023-08-12_13h05.44.604,openIAT,2023.1.3,Win32,59.95203837,
,,,,,l,1,0.617,,,,,,,,,0.617,1,0,4,4,8,1,stimuli/blank.png,eure,l,DR07EA,2023-08-12_13h05.44.604,openIAT,2023.1.3,Win32,59.95203837,
,,,,,l,1,0.5555,,,,,,,,,0.5555,1,0,5,5,17,1,stimuli/blank.png,eitel,l,DR07EA,2023-08-12_13h05.44.604,openIAT,2023.1.3,Win32,59.95203837,
,,,,,l,1,0.6004,,,,,,,,,0.6004,1,0,6,6,4,1,stimuli/blank.png,jene,l,DR07EA,2023-08-12_13h05.44.604,openIAT,2023.1.3,Win32,59.95203837,
,,,,,l,1,0.7733,,,,,,,,,0.7733,1,0,7,7,6,1,stimuli/blank.png,euch,l,DR07EA,2023-08-12_13h05.44.604,openIAT,2023.1.3,Win32,59.95203837,
,,,,,a,1,0.6673,,,,,,,,,0.6673,1,0,8,8,9,1,stimuli/blank.png,selbst,a,DR07EA,2023-08-12_13h05.44.604,openIAT,2023.1.3,Win32,59.95203837,
,,,,,l,1,0.5349,,,,,,,,,0.5349,1,0,9,9,2,1,stimuli/blank.png,ihr,l,DR07EA,2023-08-12_13h05.44.604,openIAT,2023.1.3,Win32,59.95203837,
,,,,,a,1,0.601,,,,,,,,,0.601,1,0,10,10,18,1,stimuli/blank.png,human,a,DR07EA,2023-08-12_13h05.44.604,openIAT,2023.1.3,Win32,59.95203837,
,,,,,l,0,0.5336,,,,,,,,,0.5336,0,0,11,11,7,1,stimuli/blank.png,eigene,a,DR07EA,2023-08-12_13h05.44.604,openIAT,2023.1.3,Win32,59.95203837,
,,,,,a,1,0.7583,,,,,,,,,0.7583,1,0,12,12,3,1,stimuli/blank.png,mir,a,DR07EA,2023-08-12_13h05.44.604,openIAT,2023.1.3,Win32,59.95203837,
,,,,,l,1,0.5248,,,,,,,,,0.5248,1,0,13,13,15,1,stimuli/blank.png,träge,l,DR07EA,2023-08-12_13h05.44.604,openIAT,2023.1.3,Win32,59.95203837,
,,,,,a,1,0.5669,,,,,,,,,0.5669,1,0,14,14,12,1,stimuli/blank.png,fröhlich,a,DR07EA,2023-08-12_13h05.44.604,openIAT,2023.1.3,Win32,59.95203837,
,,,,,a,1,0.6347,,,,,,,,,0.6347,1,0,15,15,14,1,stimuli/blank.png,gerecht,a,DR07EA,2023-08-12_13h05.44.604,openIAT,2023.1.3,Win32,59.95203837,
,,,,,a,1,0.617,,,,,,,,,0.617,1,0,16,16,10,1,stimuli/blank.png,aktiv,a,DR07EA,2023-08-12_13h05.44.604,openIAT,2023.1.3,Win32,59.95203837,
,,,,,a,1,0.5843,,,,,,,,,0.5843,1,0,17,17,5,1,stimuli/blank.png,meine,a,DR07EA,2023-08-12_13h05.44.604,openIAT,2023.1.3,Win32,59.95203837,
,,,,,l,1,0.7181,,,,,,,,,0.7181,1,0,18,18,0,1,stimuli/blank.png,andere,l,DR07EA,2023-08-12_13h05.44.604,openIAT,2023.1.3,Win32,59.95203837,
,,,,,a,1,0.5674,,,,,,,,,0.5674,1,0,19,19,1,1,stimuli/blank.png,ich,a,DR07EA,2023-08-12_13h05.44.604,openIAT,2023.1.3,Win32,59.95203837,
,,,,,l,1,0.5398,,,,,,,,,0.5398,1,0,0,0,17,1,stimuli/blank.png,eitel,l,DR07EA,2023-08-12_13h05.44.604,openIAT,2023.1.3,Win32,59.95203837,
,,,,,l,0,0.5391,,,,,,,,,0.5391,0,0,1,1,27,1,stimuli/blank.png,eigene,a,DR07EA,2023-08-12_13h05.44.604,openIAT,2023.1.3,Win32,59.95203837,
,,,,,l,1,0.6022,,,,,,,,,0.6022,1,0,2,2,31,1,stimuli/blank.png,brutal,l,DR07EA,2023-08-12_13h05.44.604,openIAT,2023.1.3,Win32,59.95203837,
,,,,,a,1,0.5411,,,,,,,,,0.5411,1,0,3,3,38,1,stimuli/blank.png,human,a,DR07EA,2023-08-12_13h05.44.604,openIAT,2023.1.3,Win32,59.95203837,
,,,,,a,1,0.5016,,,,,,,,,0.5016,1,0,4,4,3,1,stimuli/blank.png,mir,a,DR07EA,2023-08-12_13h05.44.604,openIAT,2023.1.3,Win32,59.95203837,
,,,,,l,1,0.6372,,,,,,,,,0.6372,1,0,5,5,24,1,stimuli/blank.png,jene,l,DR07EA,2023-08-12_13h05.44.604,openIAT,2023.1.3,Win32,59.95203837,
,,,,,a,1,0.5497,,,,,,,,,0.5497,1,0,6,6,32,1,stimuli/blank.png,fröhlich,a,DR07EA,2023-08-12_13h05.44.604,openIAT,2023.1.3,Win32,59.95203837,
,,,,,a,1,0.5003,,,,,,,,,0.5003,1,0,7,7,21,1,stimuli/blank.png,ich,a,DR07EA,2023-08-12_13h05.44.604,openIAT,2023.1.3,Win32,59.95203837,
,,,,,a,1,0.4838,,,,,,,,,0.4838,1,0,8,8,12,1,stimuli/blank.png,fröhlich,a,DR07EA,2023-08-12_13h05.44.604,openIAT,2023.1.3,Win32,59.95203837,
,,,,,a,1,0.4345,,,,,,,,,0.4345,1,0,9,9,30,1,stimuli/blank.png,aktiv,a,DR07EA,2023-08-12_13h05.44.604,openIAT,2023.1.3,Win32,59.95203837,
,,,,,a,1,0.5399,,,,,,,,,0.5399,1,0,10,10,23,1,stimuli/blank.png,mir,a,DR07EA,2023-08-12_13h05.44.604,openIAT,2023.1.3,Win32,59.95203837,
,,,,,a,1,0.6385,,,,,,,,,0.6385,1,0,11,11,14,1,stimuli/blank.png,gerecht,a,DR07EA,2023-08-12_13h05.44.604,openIAT,2023.1.3,Win32,59.95203837,
,,,,,a,1,0.5342,,,,,,,,,0.5342,1,0,12,12,36,1,stimuli/blank.png,begabt,a,DR07EA,2023-08-12_13h05.44.604,openIAT,2023.1.3,Win32,59.95203837,
,,,,,a,1,0.5578,,,,,,,,,0.5578,1,0,13,13,34,1,stimuli/blank.png,gerecht,a,DR07EA,2023-08-12_13h05.44.604,openIAT,2023.1.3,Win32,59.95203837,
,,,,,a,1,0.4833,,,,,,,,,0.4833,1,0,14,14,10,1,stimuli/blank.png,aktiv,a,DR07EA,2023-08-12_13h05.44.604,openIAT,2023.1.3,Win32,59.95203837,
,,,,,l,1,0.5003,,,,,,,,,0.5003,1,0,15,15,15,1,stimuli/blank.png,träge,l,DR07EA,2023-08-12_13h05.44.604,openIAT,2023.1.3,Win32,59.95203837,
,,,,,l,1,0.467,,,,,,,,,0.467,1,0,16,16,39,1,stimuli/blank.png,lustlos,l,DR07EA,2023-08-12_13h05.44.604,openIAT,2023.1.3,Win32,59.95203837,
,,,,,l,1,0.6169,,,,,,,,,0.6169,1,0,17,17,0,1,stimuli/blank.png,andere,l,DR07EA,2023-08-12_13h05.44.604,openIAT,2023.1.3,Win32,59.95203837,
,,,,,a,1,0.5541,,,,,,,,,0.5541,1,0,18,18,18,1,stimuli/blank.png,human,a,DR07EA,2023-08-12_13h05.44.604,openIAT,2023.1.3,Win32,59.95203837,
,,,,,a,1,0.5198,,,,,,,,,0.5198,1,0,19,19,25,1,stimuli/blank.png,meine,a,DR07EA,2023-08-12_13h05.44.604,openIAT,2023.1.3,Win32,59.95203837,
,,,,,l,1,0.4843,,,,,,,,,0.4843,1,0,20,20,33,1,stimuli/blank.png,verlogen,l,DR07EA,2023-08-12_13h05.44.604,openIAT,2023.1.3,Win32,59.95203837,
,,,,,a,1,0.6,,,,,,,,,0.6,1,0,21,21,1,1,stimuli/blank.png,ich,a,DR07EA,2023-08-12_13h05.44.604,openIAT,2023.1.3,Win32,59.95203837,
,,,,,l,1,0.5006,,,,,,,,,0.5006,1,0,22,22,2,1,stimuli/blank.png,ihr,l,DR07EA,2023-08-12_13h05.44.604,openIAT,2023.1.3,Win32,59.95203837,
,,,,,l,1,0.536,,,,,,,,,0.536,1,0,23,23,20,1,stimuli/blank.png,andere,l,DR07EA,2023-08-12_13h05.44.604,openIAT,2023.1.3,Win32,59.95203837,
,,,,,l,1,0.5739,,,,,,,,,0.5739,1,0,24,24,4,1,stimuli/blank.png,jene,l,DR07EA,2023-08-12_13h05.44.604,openIAT,2023.1.3,Win32,59.95203837,
,,,,,l,1,0.5833,,,,,,,,,0.5833,1,0,25,25,37,1,stimuli/blank.png,eitel,l,DR07EA,2023-08-12_13h05.44.604,openIAT,2023.1.3,Win32,59.95203837,
,,,,,a,1,0.7705,,,,,,,,,0.7705,1,0,26,26,29,1,stimuli/blank.png,selbst,a,DR07EA,2023-08-12_13h05.44.604,openIAT,2023.1.3,Win32,59.95203837,
,,,,,l,1,0.5998,,,,,,,,,0.5998,1,0,27,27,22,1,stimuli/blank.png,ihr,l,DR07EA,2023-08-12_13h05.44.604,openIAT,2023.1.3,Win32,59.95203837,
,,,,,l,0,0.5343,,,,,,,,,0.5343,0,0,28,28,7,1,stimuli/blank.png,eigene,a,DR07EA,2023-08-12_13h05.44.604,openIAT,2023.1.3,Win32,59.95203837,
,,,,,l,1,0.586,,,,,,,,,0.586,1,0,29,29,19,1,stimuli/blank.png,lustlos,l,DR07EA,2023-08-12_13h05.44.604,openIAT,2023.1.3,Win32,59.95203837,
,,,,,a,0,0.5514,,,,,,,,,0.5514,0,0,30,30,26,1,stimuli/blank.png,euch,l,DR07EA,2023-08-12_13h05.44.604,openIAT,2023.1.3,Win32,59.95203837,
,,,,,a,1,0.6335,,,,,,,,,0.6335,1,0,31,31,9,1,stimuli/blank.png,selbst,a,DR07EA,2023-08-12_13h05.44.604,openIAT,2023.1.3,Win32,59.95203837,
,,,,,l,1,0.5833,,,,,,,,,0.5833,1,0,32,32,35,1,stimuli/blank.png,träge,l,DR07EA,2023-08-12_13h05.44.604,openIAT,2023.1.3,Win32,59.95203837,
,,,,,l,1,0.9412,,,,,,,,,0.9412,1,0,33,33,28,1,stimuli/blank.png,eure,l,DR07EA,2023-08-12_13h05.44.604,openIAT,2023.1.3,Win32,59.95203837,
,,,,,l,1,0.6334,,,,,,,,,0.6334,1,0,34,34,8,1,stimuli/blank.png,eure,l,DR07EA,2023-08-12_13h05.44.604,openIAT,2023.1.3,Win32,59.95203837,
,,,,,a,1,0.7003,,,,,,,,,0.7003,1,0,35,35,16,1,stimuli/blank.png,begabt,a,DR07EA,2023-08-12_13h05.44.604,openIAT,2023.1.3,Win32,59.95203837,
,,,,,l,1,0.8407,,,,,,,,,0.8407,1,0,36,36,6,1,stimuli/blank.png,euch,l,DR07EA,2023-08-12_13h05.44.604,openIAT,2023.1.3,Win32,59.95203837,
,,,,,a,1,0.6207,,,,,,,,,0.6207,1,0,37,37,5,1,stimuli/blank.png,meine,a,DR07EA,2023-08-12_13h05.44.604,openIAT,2023.1.3,Win32,59.95203837,
,,,,,l,1,0.4996,,,,,,,,,0.4996,1,0,38,38,11,1,stimuli/blank.png,brutal,l,DR07EA,2023-08-12_13h05.44.604,openIAT,2023.1.3,Win32,59.95203837,
,,,,,l,1,0.6838,,,,,,,,,0.6838,1,0,39,39,13,1,stimuli/blank.png,verlogen,l,DR07EA,2023-08-12_13h05.44.604,openIAT,2023.1.3,Win32,59.95203837,
,,,,,a,1,0.8165,,,,,,,,,0.8165,1,0,0,0,14,1,stimuli/blank.png,jene,a,DR07EA,2023-08-12_13h05.44.604,openIAT,2023.1.3,Win32,59.95203837,
,,,,,l,1,0.567,,,,,,,,,0.567,1,0,1,1,15,1,stimuli/blank.png,meine,l,DR07EA,2023-08-12_13h05.44.604,openIAT,2023.1.3,Win32,59.95203837,
,,,,,a,1,0.7228,,,,,,,,,0.7228,1,0,2,2,12,1,stimuli/blank.png,ihr,a,DR07EA,2023-08-12_13h05.44.604,openIAT,2023.1.3,Win32,59.95203837,
,,,,,a,1,0.6669,,,,,,,,,0.6669,1,0,3,3,18,1,stimuli/blank.png,eure,a,DR07EA,2023-08-12_13h05.44.604,openIAT,2023.1.3,Win32,59.95203837,
,,,,,a,1,0.5174,,,,,,,,,0.5174,1,0,4,4,6,1,stimuli/blank.png,euch,a,DR07EA,2023-08-12_13h05.44.604,openIAT,2023.1.3,Win32,59.95203837,
,,,,,l,1,0.5005,,,,,,,,,0.5005,1,0,5,5,13,1,stimuli/blank.png,mir,l,DR07EA,2023-08-12_13h05.44.604,openIAT,2023.1.3,Win32,59.95203837,
,,,,,l,1,0.8919,,,,,,,,,0.8919,1,0,6,6,17,1,stimuli/blank.png,eigene,l,DR07EA,2023-08-12_13h05.44.604,openIAT,2023.1.3,Win32,59.95203837,
,,,,,l,1,0.503,,,,,,,,,0.503,1,0,7,7,1,1,stimuli/blank.png,ich,l,DR07EA,2023-08-12_13h05.44.604,openIAT,2023.1.3,Win32,59.95203837,
,,,,,a,1,0.7332,,,,,,,,,0.7332,1,0,8,8,2,1,stimuli/blank.png,ihr,a,DR07EA,2023-08-12_13h05.44.604,openIAT,2023.1.3,Win32,59.95203837,
,,,,,l,1,0.552,,,,,,,,,0.552,1,0,9,9,19,1,stimuli/blank.png,selbst,l,DR07EA,2023-08-12_13h05.44.604,openIAT,2023.1.3,Win32,59.95203837,
,,,,,a,1,0.5511,,,,,,,,,0.5511,1,0,10,10,10,1,stimuli/blank.png,andere,a,DR07EA,2023-08-12_13h05.44.604,openIAT,2023.1.3,Win32,59.95203837,
,,,,,l,1,0.4671,,,,,,,,,0.4671,1,0,11,11,3,1,stimuli/blank.png,mir,l,DR07EA,2023-08-12_13h05.44.604,openIAT,2023.1.3,Win32,59.95203837,
,,,,,a,1,0.7728,,,,,,,,,0.7728,1,0,12,12,0,1,stimuli/blank.png,andere,a,DR07EA,2023-08-12_13h05.44.604,openIAT,2023.1.3,Win32,59.95203837,
,,,,,a,0,0.7213,,,,,,,,,0.7213,0,0,13,13,9,1,stimuli/blank.png,selbst,l,DR07EA,2023-08-12_13h05.44.604,openIAT,2023.1.3,Win32,59.95203837,
,,,,,l,1,0.6033,,,,,,,,,0.6033,1,0,14,14,7,1,stimuli/blank.png,eigene,l,DR07EA,2023-08-12_13h05.44.604,openIAT,2023.1.3,Win32,59.95203837,
,,,,,a,1,0.5999,,,,,,,,,0.5999,1,0,15,15,16,1,stimuli/blank.png,euch,a,DR07EA,2023-08-12_13h05.44.604,openIAT,2023.1.3,Win32,59.95203837,
,,,,,a,1,0.6341,,,,,,,,,0.6341,1,0,16,16,4,1,stimuli/blank.png,jene,a,DR07EA,2023-08-12_13h05.44.604,openIAT,2023.1.3,Win32,59.95203837,
,,,,,l,1,0.5343,,,,,,,,,0.5343,1,0,17,17,5,1,stimuli/blank.png,meine,l,DR07EA,2023-08-12_13h05.44.604,openIAT,2023.1.3,Win32,59.95203837,
,,,,,a,1,0.5171,,,,,,,,,0.5171,1,0,18,18,8,1,stimuli/blank.png,eure,a,DR07EA,2023-08-12_13h05.44.604,openIAT,2023.1.3,Win32,59.95203837,
,,,,,l,1,0.6353,,,,,,,,,0.6353,1,0,19,19,11,1,stimuli/blank.png,ich,l,DR07EA,2023-08-12_13h05.44.604,openIAT,2023.1.3,Win32,59.95203837,
,,,,,l,1,0.6833,,,,,,,,,0.6833,1,0,0,0,1,1,stimuli/blank.png,ich,l,DR07EA,2023-08-12_13h05.44.604,openIAT,2023.1.3,Win32,59.95203837,
,,,,,l,0,0.5723,,,,,,,,,0.5723,0,0,1,1,14,1,stimuli/blank.png,gerecht,a,DR07EA,2023-08-12_13h05.44.604,openIAT,2023.1.3,Win32,59.95203837,
,,,,,l,1,1.0346,,,,,,,,,1.0346,1,0,2,2,11,1,stimuli/blank.png,brutal,l,DR07EA,2023-08-12_13h05.44.604,openIAT,2023.1.3,Win32,59.95203837,
,,,,,a,1,0.7333,,,,,,,,,0.7333,1,0,3,3,12,1,stimuli/blank.png,fröhlich,a,DR07EA,2023-08-12_13h05.44.604,openIAT,2023.1.3,Win32,59.95203837,
,,,,,l,1,0.9166,,,,,,,,,0.9166,1,0,4,4,17,1,stimuli/blank.png,eitel,l,DR07EA,2023-08-12_13h05.44.604,openIAT,2023.1.3,Win32,59.95203837,
,,,,,l,1,0.8664,,,,,,,,,0.8664,1,0,5,5,5,1,stimuli/blank.png,meine,l,DR07EA,2023-08-12_13h05.44.604,openIAT,2023.1.3,Win32,59.95203837,
,,,,,l,1,0.5842,,,,,,,,,0.5842,1,0,6,6,3,1,stimuli/blank.png,mir,l,DR07EA,2023-08-12_13h05.44.604,openIAT,2023.1.3,Win32,59.95203837,
,,,,,l,1,1.0669,,,,,,,,,1.0669,1,0,7,7,13,1,stimuli/blank.png,verlogen,l,DR07EA,2023-08-12_13h05.44.604,openIAT,2023.1.3,Win32,59.95203837,
,,,,,a,1,0.9001,,,,,,,,,0.9001,1,0,8,8,4,1,stimuli/blank.png,jene,a,DR07EA,2023-08-12_13h05.44.604,openIAT,2023.1.3,Win32,59.95203837,
,,,,,a,1,0.7498,,,,,,,,,0.7498,1,0,9,9,2,1,stimuli/blank.png,ihr,a,DR07EA,2023-08-12_13h05.44.604,openIAT,2023.1.3,Win32,59.95203837,
,,,,,l,1,0.7167,,,,,,,,,0.7167,1,0,10,10,9,1,stimuli/blank.png,selbst,l,DR07EA,2023-08-12_13h05.44.604,openIAT,2023.1.3,Win32,59.95203837,
,,,,,a,1,1.0501,,,,,,,,,1.0501,1,0,11,11,10,1,stimuli/blank.png,aktiv,a,DR07EA,2023-08-12_13h05.44.604,openIAT,2023.1.3,Win32,59.95203837,
,,,,,a,1,0.9176,,,,,,,,,0.9176,1,0,12,12,16,1,stimuli/blank.png,begabt,a,DR07EA,2023-08-12_13h05.44.604,openIAT,2023.1.3,Win32,59.95203837,
,,,,,l,1,0.7,,,,,,,,,0.7,1,0,13,13,7,1,stimuli/blank.png,eigene,l,DR07EA,2023-08-12_13h05.44.604,openIAT,2023.1.3,Win32,59.95203837,
,,,,,l,1,0.9417,,,,,,,,,0.9417,1,0,14,14,19,1,stimuli/blank.png,lustlos,l,DR07EA,2023-08-12_13h05.44.604,openIAT,2023.1.3,Win32,59.95203837,
,,,,,a,1,0.95,,,,,,,,,0.95,1,0,15,15,18,1,stimuli/blank.png,human,a,DR07EA,2023-08-12_13h05.44.604,openIAT,2023.1.3,Win32,59.95203837,
,,,,,a,1,0.8505,,,,,,,,,0.8505,1,0,16,16,8,1,stimuli/blank.png,eure,a,DR07EA,2023-08-12_13h05.44.604,openIAT,2023.1.3,Win32,59.95203837,
,,,,,l,1,1.6379,,,,,,,,,1.6379,1,0,17,17,15,1,stimuli/blank.png,träge,l,DR07EA,2023-08-12_13h05.44.604,openIAT,2023.1.3,Win32,59.95203837,
,,,,,a,1,1.0176,,,,,,,,,1.0176,1,0,18,18,0,1,stimuli/blank.png,andere,a,DR07EA,2023-08-12_13h05.44.604,openIAT,2023.1.3,Win32,59.95203837,
,,,,,a,1,0.875,,,,,,,,,0.875,1,0,19,19,6,1,stimuli/blank.png,euch,a,DR07EA,2023-08-12_13h05.44.604,openIAT,2023.1.3,Win32,59.95203837,
,,,,,a,1,0.7836,,,,,,,,,0.7836,1,0,0,0,24,1,stimuli/blank.png,jene,a,DR07EA,2023-08-12_13h05.44.604,openIAT,2023.1.3,Win32,59.95203837,
,,,,,a,1,0.969,,,,,,,,,0.969,1,0,1,1,32,1,stimuli/blank.png,fröhlich,a,DR07EA,2023-08-12_13h05.44.604,openIAT,2023.1.3,Win32,59.95203837,
,,,,,a,1,0.8865,,,,,,,,,0.8865,1,0,2,2,20,1,stimuli/blank.png,andere,a,DR07EA,2023-08-12_13h05.44.604,openIAT,2023.1.3,Win32,59.95203837,
,,,,,a,0,0.5844,,,,,,,,,0.5844,0,0,3,3,13,1,stimuli/blank.png,verlogen,l,DR07EA,2023-08-12_13h05.44.604,openIAT,2023.1.3,Win32,59.95203837,
,,,,,l,1,0.6673,,,,,,,,,0.6673,1,0,4,4,39,1,stimuli/blank.png,lustlos,l,DR07EA,2023-08-12_13h05.44.604,openIAT,2023.1.3,Win32,59.95203837,
,,,,,a,1,0.6677,,,,,,,,,0.6677,1,0,5,5,12,1,stimuli/blank.png,fröhlich,a,DR07EA,2023-08-12_13h05.44.604,openIAT,2023.1.3,Win32,59.95203837,
,,,,,l,1,0.6183,,,,,,,,,0.6183,1,0,6,6,1,1,stimuli/blank.png,ich,l,DR07EA,2023-08-12_13h05.44.604,openIAT,2023.1.3,Win32,59.95203837,
,,,,,a,1,0.5837,,,,,,,,,0.5837,1,0,7,7,28,1,stimuli/blank.png,eure,a,DR07EA,2023-08-12_13h05.44.604,openIAT,2023.1.3,Win32,59.95203837,
,,,,,a,1,1.0008,,,,,,,,,1.0008,1,0,8,8,22,1,stimuli/blank.png,ihr,a,DR07EA,2023-08-12_13h05.44.604,openIAT,2023.1.3,Win32,59.95203837,
,,,,,l,0,0.634,,,,,,,,,0.634,0,0,9,9,14,1,stimuli/blank.png,gerecht,a,DR07EA,2023-08-12_13h05.44.604,openIAT,2023.1.3,Win32,59.95203837,
,,,,,l,1,1.0665,,,,,,,,,1.0665,1,0,10,10,17,1,stimuli/blank.png,eitel,l,DR07EA,2023-08-12_13h05.44.604,openIAT,2023.1.3,Win32,59.95203837,
,,,,,a,0,0.7408,,,,,,,,,0.7408,0,0,11,11,27,1,stimuli/blank.png,eigene,l,DR07EA,2023-08-12_13h05.44.604,openIAT,2023.1.3,Win32,59.95203837,
,,,,,a,1,0.7835,,,,,,,,,0.7835,1,0,12,12,0,1,stimuli/blank.png,andere,a,DR07EA,2023-08-12_13h05.44.604,openIAT,2023.1.3,Win32,59.95203837,
,,,,,l,1,0.9914,,,,,,,,,0.9914,1,0,13,13,31,1,stimuli/blank.png,brutal,l,DR07EA,2023-08-12_13h05.44.604,openIAT,2023.1.3,Win32,59.95203837,
,,,,,a,1,0.6503,,,,,,,,,0.6503,1,0,14,14,2,1,stimuli/blank.png,ihr,a,DR07EA,2023-08-12_13h05.44.604,openIAT,2023.1.3,Win32,59.95203837,
,,,,,l,1,0.6668,,,,,,,,,0.6668,1,0,15,15,11,1,stimuli/blank.png,brutal,l,DR07EA,2023-08-12_13h05.44.604,openIAT,2023.1.3,Win32,59.95203837,
,,,,,a,1,0.7837,,,,,,,,,0.7837,1,0,16,16,18,1,stimuli/blank.png,human,a,DR07EA,2023-08-12_13h05.44.604,openIAT,2023.1.3,Win32,59.95203837,
,,,,,a,1,0.6371,,,,,,,,,0.6371,1,0,17,17,6,1,stimuli/blank.png,euch,a,DR07EA,2023-08-12_13h05.44.604,openIAT,2023.1.3,Win32,59.95203837,
,,,,,a,0,0.5998,,,,,,,,,0.5998,0,0,18,18,7,1,stimuli/blank.png,eigene,l,DR07EA,2023-08-12_13h05.44.604,openIAT,2023.1.3,Win32,59.95203837,
,,,,,a,1,0.7397,,,,,,,,,0.7397,1,0,19,19,4,1,stimuli/blank.png,jene,a,DR07EA,2023-08-12_13h05.44.604,openIAT,2023.1.3,Win32,59.95203837,
,,,,,l,0,0.7835,,,,,,,,,0.7835,0,0,20,20,30,1,stimuli/blank.png,aktiv,a,DR07EA,2023-08-12_13h05.44.604,openIAT,2023.1.3,Win32,59.95203837,
,,,,,a,1,0.7212,,,,,,,,,0.7212,1,0,21,21,26,1,stimuli/blank.png,euch,a,DR07EA,2023-08-12_13h05.44.604,openIAT,2023.1.3,Win32,59.95203837,
,,,,,l,1,0.6723,,,,,,,,,0.6723,1,0,22,22,35,1,stimuli/blank.png,träge,l,DR07EA,2023-08-12_13h05.44.604,openIAT,2023.1.3,Win32,59.95203837,
,,,,,l,1,0.7835,,,,,,,,,0.7835,1,0,23,23,3,1,stimuli/blank.png,mir,l,DR07EA,2023-08-12_13h05.44.604,openIAT,2023.1.3,Win32,59.95203837,
,,,,,l,1,0.7011,,,,,,,,,0.7011,1,0,24,24,19,1,stimuli/blank.png,lustlos,l,DR07EA,2023-08-12_13h05.44.604,openIAT,2023.1.3,Win32,59.95203837,
,,,,,a,1,0.5529,,,,,,,,,0.5529,1,0,25,25,10,1,stimuli/blank.png,aktiv,a,DR07EA,2023-08-12_13h05.44.604,openIAT,2023.1.3,Win32,59.95203837,
,,,,,a,1,0.6708,,,,,,,,,0.6708,1,0,26,26,34,1,stimuli/blank.png,gerecht,a,DR07EA,2023-08-12_13h05.44.604,openIAT,2023.1.3,Win32,59.95203837,
,,,,,l,1,0.5379,,,,,,,,,0.5379,1,0,27,27,25,1,stimuli/blank.png,meine,l,DR07EA,2023-08-12_13h05.44.604,openIAT,2023.1.3,Win32,59.95203837,
,,,,,a,1,0.6835,,,,,,,,,0.6835,1,0,28,28,16,1,stimuli/blank.png,begabt,a,DR07EA,2023-08-12_13h05.44.604,openIAT,2023.1.3,Win32,59.95203837,
,,,,,a,1,0.6716,,,,,,,,,0.6716,1,0,29,29,36,1,stimuli/blank.png,begabt,a,DR07EA,2023-08-12_13h05.44.604,openIAT,2023.1.3,Win32,59.95203837,
,,,,,l,1,0.533,,,,,,,,,0.533,1,0,30,30,5,1,stimuli/blank.png,meine,l,DR07EA,2023-08-12_13h05.44.604,openIAT,2023.1.3,Win32,59.95203837,
,,,,,l,1,0.4835,,,,,,,,,0.4835,1,0,31,31,33,1,stimuli/blank.png,verlogen,l,DR07EA,2023-08-12_13h05.44.604,openIAT,2023.1.3,Win32,59.95203837,
,,,,,a,0,0.5683,,,,,,,,,0.5683,0,0,32,32,9,1,stimuli/blank.png,selbst,l,DR07EA,2023-08-12_13h05.44.604,openIAT,2023.1.3,Win32,59.95203837,
,,,,,l,1,0.639,,,,,,,,,0.639,1,0,33,33,29,1,stimuli/blank.png,selbst,l,DR07EA,2023-08-12_13h05.44.604,openIAT,2023.1.3,Win32,59.95203837,
,,,,,l,1,0.5002,,,,,,,,,0.5002,1,0,34,34,23,1,stimuli/blank.png,mir,l,DR07EA,2023-08-12_13h05.44.604,openIAT,2023.1.3,Win32,59.95203837,
,,,,,l,1,0.6212,,,,,,,,,0.6212,1,0,35,35,37,1,stimuli/blank.png,eitel,l,DR07EA,2023-08-12_13h05.44.604,openIAT,2023.1.3,Win32,59.95203837,
,,,,,a,1,0.7199,,,,,,,,,0.7199,1,0,36,36,38,1,stimuli/blank.png,human,a,DR07EA,2023-08-12_13h05.44.604,openIAT,2023.1.3,Win32,59.95203837,
,,,,,l,0,0.7012,,,,,,,,,0.7012,0,0,37,37,8,1,stimuli/blank.png,eure,a,DR07EA,2023-08-12_13h05.44.604,openIAT,2023.1.3,Win32,59.95203837,
,,,,,l,1,0.4834,,,,,,,,,0.4834,1,0,38,38,21,1,stimuli/blank.png,ich,l,DR07EA,2023-08-12_13h05.44.604,openIAT,2023.1.3,Win32,59.95203837,
,,,,,l,1,0.6338,,,,,,,,,0.6338,1,0,39,39,15,1,stimuli/blank.png,träge,l,DR07EA,2023-08-12_13h05.44.604,openIAT,2023.1.3,Win32,59.95203837,
,,,,,,,,,,,,,,,,,,,,,,,,,,DR07EA,2023-08-12_13h05.44.604,openIAT,2023.1.3,Win32,59.95203837,
