instr_done_touch.x,instr_done_touch.y,instr_done_touch.leftButton,instr_done_touch.midButton,instr_done_touch.rightButton,instr_done_touch.clicked_name,key_resp.keys,key_resp.corr,key_resp.rt,key_resp.duration,touch_resp.x,touch_resp.y,touch_resp.leftButton,touch_resp.midButton,touch_resp.rightButton,touch_resp.time,touch_resp.clicked_name,rt,corr,trials.thisRepN,trials.thisTrialN,trials.thisN,trials.thisIndex,trials.ran,stimImage,stimWord,CorrAns,participant,date,expName,psychopyVersion,OS,frameRate,return_tic
-0.045504386,-0.394736842,1,0,0,instr_done_button,l,1,0.7786,,,,,,,,,0.7786,1,0,0,0,19,1,stimuli/blank.png,lustlos,l,DR10AD,2023-08-15_12h37.49.069,openIAT,2023.1.3,Win32,58.71645822,
,,,,,,l,1,0.6186,,,,,,,,,0.6186,1,0,1,1,5,1,stimuli/blank.png,träge,l,DR10AD,2023-08-15_12h37.49.069,openIAT,2023.1.3,Win32,58.71645822,
,,,,,,a,1,0.7515,,,,,,,,,0.7515,1,0,2,2,8,1,stimuli/blank.png,human,a,DR10AD,2023-08-15_12h37.49.069,openIAT,2023.1.3,Win32,58.71645822,
,,,,,,a,1,0.5842,,,,,,,,,0.5842,1,0,3,3,4,1,stimuli/blank.png,gerecht,a,DR10AD,2023-08-15_12h37.49.069,openIAT,2023.1.3,Win32,58.71645822,
,,,,,,l,1,0.6015,,,,,,,,,0.6015,1,0,4,4,13,1,stimuli/blank.png,verlogen,l,DR10AD,2023-08-15_12h37.49.069,openIAT,2023.1.3,Win32,58.71645822,
,,,,,,l,1,0.5854,,,,,,,,,0.5854,1,0,5,5,3,1,stimuli/blank.png,verlogen,l,DR10AD,2023-08-15_12h37.49.069,openIAT,2023.1.3,Win32,58.71645822,
,,,,,,a,1,0.5019,,,,,,,,,0.5019,1,0,6,6,12,1,stimuli/blank.png,fröhlich,a,DR10AD,2023-08-15_12h37.49.069,openIAT,2023.1.3,Win32,58.71645822,
,,,,,,a,1,0.5844,,,,,,,,,0.5844,1,0,7,7,14,1,stimuli/blank.png,gerecht,a,DR10AD,2023-08-15_12h37.49.069,openIAT,2023.1.3,Win32,58.71645822,
,,,,,,a,1,0.5854,,,,,,,,,0.5854,1,0,8,8,16,1,stimuli/blank.png,begabt,a,DR10AD,2023-08-15_12h37.49.069,openIAT,2023.1.3,Win32,58.71645822,
,,,,,,l,1,0.5997,,,,,,,,,0.5997,1,0,9,9,15,1,stimuli/blank.png,träge,l,DR10AD,2023-08-15_12h37.49.069,openIAT,2023.1.3,Win32,58.71645822,
,,,,,,a,0,0.5181,,,,,,,,,0.5181,0,0,10,10,11,1,stimuli/blank.png,brutal,l,DR10AD,2023-08-15_12h37.49.069,openIAT,2023.1.3,Win32,58.71645822,
,,,,,,a,0,0.7008,,,,,,,,,0.7008,0,0,11,11,17,1,stimuli/blank.png,eitel,l,DR10AD,2023-08-15_12h37.49.069,openIAT,2023.1.3,Win32,58.71645822,
,,,,,,l,1,0.7185,,,,,,,,,0.7185,1,0,12,12,1,1,stimuli/blank.png,brutal,l,DR10AD,2023-08-15_12h37.49.069,openIAT,2023.1.3,Win32,58.71645822,
,,,,,,l,1,0.7182,,,,,,,,,0.7182,1,0,13,13,7,1,stimuli/blank.png,eitel,l,DR10AD,2023-08-15_12h37.49.069,openIAT,2023.1.3,Win32,58.71645822,
,,,,,,a,1,0.651,,,,,,,,,0.651,1,0,14,14,18,1,stimuli/blank.png,human,a,DR10AD,2023-08-15_12h37.49.069,openIAT,2023.1.3,Win32,58.71645822,
,,,,,,a,1,0.4682,,,,,,,,,0.4682,1,0,15,15,10,1,stimuli/blank.png,aktiv,a,DR10AD,2023-08-15_12h37.49.069,openIAT,2023.1.3,Win32,58.71645822,
,,,,,,a,1,0.5183,,,,,,,,,0.5183,1,0,16,16,2,1,stimuli/blank.png,fröhlich,a,DR10AD,2023-08-15_12h37.49.069,openIAT,2023.1.3,Win32,58.71645822,
,,,,,,a,1,0.8017,,,,,,,,,0.8017,1,0,17,17,6,1,stimuli/blank.png,begabt,a,DR10AD,2023-08-15_12h37.49.069,openIAT,2023.1.3,Win32,58.71645822,
,,,,,,a,1,0.602,,,,,,,,,0.602,1,0,18,18,0,1,stimuli/blank.png,aktiv,a,DR10AD,2023-08-15_12h37.49.069,openIAT,2023.1.3,Win32,58.71645822,
,,,,,,l,1,0.5917,,,,,,,,,0.5917,1,0,19,19,9,1,stimuli/blank.png,lustlos,l,DR10AD,2023-08-15_12h37.49.069,openIAT,2023.1.3,Win32,58.71645822,
,,,,,,l,1,0.6722,,,,,,,,,0.6722,1,0,0,0,18,1,stimuli/blank.png,eure,l,DR10AD,2023-08-15_12h37.49.069,openIAT,2023.1.3,Win32,58.71645822,
,,,,,,a,1,0.5181,,,,,,,,,0.5181,1,0,1,1,11,1,stimuli/blank.png,ich,a,DR10AD,2023-08-15_12h37.49.069,openIAT,2023.1.3,Win32,58.71645822,
,,,,,,l,1,0.4188,,,,,,,,,0.4188,1,0,2,2,10,1,stimuli/blank.png,andere,l,DR10AD,2023-08-15_12h37.49.069,openIAT,2023.1.3,Win32,58.71645822,
,,,,,,a,1,0.5188,,,,,,,,,0.5188,1,0,3,3,15,1,stimuli/blank.png,meine,a,DR10AD,2023-08-15_12h37.49.069,openIAT,2023.1.3,Win32,58.71645822,
,,,,,,l,1,0.7183,,,,,,,,,0.7183,1,0,4,4,12,1,stimuli/blank.png,ihr,l,DR10AD,2023-08-15_12h37.49.069,openIAT,2023.1.3,Win32,58.71645822,
,,,,,,a,1,0.6346,,,,,,,,,0.6346,1,0,5,5,5,1,stimuli/blank.png,meine,a,DR10AD,2023-08-15_12h37.49.069,openIAT,2023.1.3,Win32,58.71645822,
,,,,,,a,1,0.6013,,,,,,,,,0.6013,1,0,6,6,1,1,stimuli/blank.png,ich,a,DR10AD,2023-08-15_12h37.49.069,openIAT,2023.1.3,Win32,58.71645822,
,,,,,,l,1,0.5518,,,,,,,,,0.5518,1,0,7,7,0,1,stimuli/blank.png,andere,l,DR10AD,2023-08-15_12h37.49.069,openIAT,2023.1.3,Win32,58.71645822,
,,,,,,l,1,0.7848,,,,,,,,,0.7848,1,0,8,8,14,1,stimuli/blank.png,jene,l,DR10AD,2023-08-15_12h37.49.069,openIAT,2023.1.3,Win32,58.71645822,
,,,,,,l,1,0.4524,,,,,,,,,0.4524,1,0,9,9,4,1,stimuli/blank.png,jene,l,DR10AD,2023-08-15_12h37.49.069,openIAT,2023.1.3,Win32,58.71645822,
,,,,,,a,1,0.4833,,,,,,,,,0.4833,1,0,10,10,13,1,stimuli/blank.png,mir,a,DR10AD,2023-08-15_12h37.49.069,openIAT,2023.1.3,Win32,58.71645822,
,,,,,,a,1,0.6344,,,,,,,,,0.6344,1,0,11,11,17,1,stimuli/blank.png,eigene,a,DR10AD,2023-08-15_12h37.49.069,openIAT,2023.1.3,Win32,58.71645822,
,,,,,,a,1,0.7571,,,,,,,,,0.7571,1,0,12,12,7,1,stimuli/blank.png,eigene,a,DR10AD,2023-08-15_12h37.49.069,openIAT,2023.1.3,Win32,58.71645822,
,,,,,,a,1,0.5178,,,,,,,,,0.5178,1,0,13,13,19,1,stimuli/blank.png,selbst,a,DR10AD,2023-08-15_12h37.49.069,openIAT,2023.1.3,Win32,58.71645822,
,,,,,,l,1,0.5506,,,,,,,,,0.5506,1,0,14,14,8,1,stimuli/blank.png,eure,l,DR10AD,2023-08-15_12h37.49.069,openIAT,2023.1.3,Win32,58.71645822,
,,,,,,a,1,0.5332,,,,,,,,,0.5332,1,0,15,15,3,1,stimuli/blank.png,mir,a,DR10AD,2023-08-15_12h37.49.069,openIAT,2023.1.3,Win32,58.71645822,
,,,,,,l,1,0.684,,,,,,,,,0.684,1,0,16,16,2,1,stimuli/blank.png,ihr,l,DR10AD,2023-08-15_12h37.49.069,openIAT,2023.1.3,Win32,58.71645822,
,,,,,,l,1,0.7173,,,,,,,,,0.7173,1,0,17,17,6,1,stimuli/blank.png,euch,l,DR10AD,2023-08-15_12h37.49.069,openIAT,2023.1.3,Win32,58.71645822,
,,,,,,l,1,0.417,,,,,,,,,0.417,1,0,18,18,16,1,stimuli/blank.png,euch,l,DR10AD,2023-08-15_12h37.49.069,openIAT,2023.1.3,Win32,58.71645822,
,,,,,,a,1,0.586,,,,,,,,,0.586,1,0,19,19,9,1,stimuli/blank.png,selbst,a,DR10AD,2023-08-15_12h37.49.069,openIAT,2023.1.3,Win32,58.71645822,
,,,,,,l,1,0.5559,,,,,,,,,0.5559,1,0,0,0,8,1,stimuli/blank.png,eure,l,DR10AD,2023-08-15_12h37.49.069,openIAT,2023.1.3,Win32,58.71645822,
,,,,,,a,1,0.6675,,,,,,,,,0.6675,1,0,1,1,14,1,stimuli/blank.png,gerecht,a,DR10AD,2023-08-15_12h37.49.069,openIAT,2023.1.3,Win32,58.71645822,
,,,,,,l,1,0.5845,,,,,,,,,0.5845,1,0,2,2,11,1,stimuli/blank.png,brutal,l,DR10AD,2023-08-15_12h37.49.069,openIAT,2023.1.3,Win32,58.71645822,
,,,,,,a,1,0.6178,,,,,,,,,0.6178,1,0,3,3,16,1,stimuli/blank.png,begabt,a,DR10AD,2023-08-15_12h37.49.069,openIAT,2023.1.3,Win32,58.71645822,
,,,,,,l,1,0.5676,,,,,,,,,0.5676,1,0,4,4,13,1,stimuli/blank.png,verlogen,l,DR10AD,2023-08-15_12h37.49.069,openIAT,2023.1.3,Win32,58.71645822,
,,,,,,a,1,0.5518,,,,,,,,,0.5518,1,0,5,5,3,1,stimuli/blank.png,mir,a,DR10AD,2023-08-15_12h37.49.069,openIAT,2023.1.3,Win32,58.71645822,
,,,,,,a,1,0.685,,,,,,,,,0.685,1,0,6,6,9,1,stimuli/blank.png,selbst,a,DR10AD,2023-08-15_12h37.49.069,openIAT,2023.1.3,Win32,58.71645822,
,,,,,,a,1,0.668,,,,,,,,,0.668,1,0,7,7,7,1,stimuli/blank.png,eigene,a,DR10AD,2023-08-15_12h37.49.069,openIAT,2023.1.3,Win32,58.71645822,
,,,,,,a,1,0.5513,,,,,,,,,0.5513,1,0,8,8,12,1,stimuli/blank.png,fröhlich,a,DR10AD,2023-08-15_12h37.49.069,openIAT,2023.1.3,Win32,58.71645822,
,,,,,,l,1,0.5842,,,,,,,,,0.5842,1,0,9,9,4,1,stimuli/blank.png,jene,l,DR10AD,2023-08-15_12h37.49.069,openIAT,2023.1.3,Win32,58.71645822,
,,,,,,a,1,0.5562,,,,,,,,,0.5562,1,0,10,10,10,1,stimuli/blank.png,aktiv,a,DR10AD,2023-08-15_12h37.49.069,openIAT,2023.1.3,Win32,58.71645822,
,,,,,,a,1,0.6524,,,,,,,,,0.6524,1,0,11,11,1,1,stimuli/blank.png,ich,a,DR10AD,2023-08-15_12h37.49.069,openIAT,2023.1.3,Win32,58.71645822,
,,,,,,l,1,0.5743,,,,,,,,,0.5743,1,0,12,12,15,1,stimuli/blank.png,träge,l,DR10AD,2023-08-15_12h37.49.069,openIAT,2023.1.3,Win32,58.71645822,
,,,,,,a,1,0.5505,,,,,,,,,0.5505,1,0,13,13,5,1,stimuli/blank.png,meine,a,DR10AD,2023-08-15_12h37.49.069,openIAT,2023.1.3,Win32,58.71645822,
,,,,,,l,1,0.9179,,,,,,,,,0.9179,1,0,14,14,2,1,stimuli/blank.png,ihr,l,DR10AD,2023-08-15_12h37.49.069,openIAT,2023.1.3,Win32,58.71645822,
,,,,,,l,1,0.6184,,,,,,,,,0.6184,1,0,15,15,19,1,stimuli/blank.png,lustlos,l,DR10AD,2023-08-15_12h37.49.069,openIAT,2023.1.3,Win32,58.71645822,
,,,,,,l,1,0.6072,,,,,,,,,0.6072,1,0,16,16,0,1,stimuli/blank.png,andere,l,DR10AD,2023-08-15_12h37.49.069,openIAT,2023.1.3,Win32,58.71645822,
,,,,,,a,1,0.551,,,,,,,,,0.551,1,0,17,17,18,1,stimuli/blank.png,human,a,DR10AD,2023-08-15_12h37.49.069,openIAT,2023.1.3,Win32,58.71645822,
,,,,,,a,0,0.518,,,,,,,,,0.518,0,0,18,18,17,1,stimuli/blank.png,eitel,l,DR10AD,2023-08-15_12h37.49.069,openIAT,2023.1.3,Win32,58.71645822,
,,,,,,l,1,0.7179,,,,,,,,,0.7179,1,0,19,19,6,1,stimuli/blank.png,euch,l,DR10AD,2023-08-15_12h37.49.069,openIAT,2023.1.3,Win32,58.71645822,
,,,,,,a,1,0.6502,,,,,,,,,0.6502,1,0,0,0,7,1,stimuli/blank.png,eigene,a,DR10AD,2023-08-15_12h37.49.069,openIAT,2023.1.3,Win32,58.71645822,
,,,,,,a,1,0.4685,,,,,,,,,0.4685,1,0,1,1,30,1,stimuli/blank.png,aktiv,a,DR10AD,2023-08-15_12h37.49.069,openIAT,2023.1.3,Win32,58.71645822,
,,,,,,l,1,0.5668,,,,,,,,,0.5668,1,0,2,2,31,1,stimuli/blank.png,brutal,l,DR10AD,2023-08-15_12h37.49.069,openIAT,2023.1.3,Win32,58.71645822,
,,,,,,a,1,0.6327,,,,,,,,,0.6327,1,0,3,3,9,1,stimuli/blank.png,selbst,a,DR10AD,2023-08-15_12h37.49.069,openIAT,2023.1.3,Win32,58.71645822,
,,,,,,a,1,0.5507,,,,,,,,,0.5507,1,0,4,4,21,1,stimuli/blank.png,ich,a,DR10AD,2023-08-15_12h37.49.069,openIAT,2023.1.3,Win32,58.71645822,
,,,,,,l,1,0.5404,,,,,,,,,0.5404,1,0,5,5,0,1,stimuli/blank.png,andere,l,DR10AD,2023-08-15_12h37.49.069,openIAT,2023.1.3,Win32,58.71645822,
,,,,,,a,1,0.5509,,,,,,,,,0.5509,1,0,6,6,32,1,stimuli/blank.png,fröhlich,a,DR10AD,2023-08-15_12h37.49.069,openIAT,2023.1.3,Win32,58.71645822,
,,,,,,a,1,0.5174,,,,,,,,,0.5174,1,0,7,7,34,1,stimuli/blank.png,gerecht,a,DR10AD,2023-08-15_12h37.49.069,openIAT,2023.1.3,Win32,58.71645822,
,,,,,,l,1,0.4861,,,,,,,,,0.4861,1,0,8,8,11,1,stimuli/blank.png,brutal,l,DR10AD,2023-08-15_12h37.49.069,openIAT,2023.1.3,Win32,58.71645822,
,,,,,,a,1,0.5665,,,,,,,,,0.5665,1,0,9,9,1,1,stimuli/blank.png,ich,a,DR10AD,2023-08-15_12h37.49.069,openIAT,2023.1.3,Win32,58.71645822,
,,,,,,a,1,0.7504,,,,,,,,,0.7504,1,0,10,10,23,1,stimuli/blank.png,mir,a,DR10AD,2023-08-15_12h37.49.069,openIAT,2023.1.3,Win32,58.71645822,
,,,,,,l,1,0.5674,,,,,,,,,0.5674,1,0,11,11,15,1,stimuli/blank.png,träge,l,DR10AD,2023-08-15_12h37.49.069,openIAT,2023.1.3,Win32,58.71645822,
,,,,,,l,1,0.7098,,,,,,,,,0.7098,1,0,12,12,37,1,stimuli/blank.png,eitel,l,DR10AD,2023-08-15_12h37.49.069,openIAT,2023.1.3,Win32,58.71645822,
,,,,,,l,1,0.6588,,,,,,,,,0.6588,1,0,13,13,24,1,stimuli/blank.png,jene,l,DR10AD,2023-08-15_12h37.49.069,openIAT,2023.1.3,Win32,58.71645822,
,,,,,,l,1,0.568,,,,,,,,,0.568,1,0,14,14,13,1,stimuli/blank.png,verlogen,l,DR10AD,2023-08-15_12h37.49.069,openIAT,2023.1.3,Win32,58.71645822,
,,,,,,a,1,0.5356,,,,,,,,,0.5356,1,0,15,15,12,1,stimuli/blank.png,fröhlich,a,DR10AD,2023-08-15_12h37.49.069,openIAT,2023.1.3,Win32,58.71645822,
,,,,,,a,1,0.6252,,,,,,,,,0.6252,1,0,16,16,38,1,stimuli/blank.png,human,a,DR10AD,2023-08-15_12h37.49.069,openIAT,2023.1.3,Win32,58.71645822,
,,,,,,a,1,0.8354,,,,,,,,,0.8354,1,0,17,17,5,1,stimuli/blank.png,meine,a,DR10AD,2023-08-15_12h37.49.069,openIAT,2023.1.3,Win32,58.71645822,
,,,,,,l,1,0.6171,,,,,,,,,0.6171,1,0,18,18,33,1,stimuli/blank.png,verlogen,l,DR10AD,2023-08-15_12h37.49.069,openIAT,2023.1.3,Win32,58.71645822,
,,,,,,l,1,0.8014,,,,,,,,,0.8014,1,0,19,19,2,1,stimuli/blank.png,ihr,l,DR10AD,2023-08-15_12h37.49.069,openIAT,2023.1.3,Win32,58.71645822,
,,,,,,l,1,0.6009,,,,,,,,,0.6009,1,0,20,20,4,1,stimuli/blank.png,jene,l,DR10AD,2023-08-15_12h37.49.069,openIAT,2023.1.3,Win32,58.71645822,
,,,,,,a,1,0.5851,,,,,,,,,0.5851,1,0,21,21,27,1,stimuli/blank.png,eigene,a,DR10AD,2023-08-15_12h37.49.069,openIAT,2023.1.3,Win32,58.71645822,
,,,,,,a,1,0.6334,,,,,,,,,0.6334,1,0,22,22,18,1,stimuli/blank.png,human,a,DR10AD,2023-08-15_12h37.49.069,openIAT,2023.1.3,Win32,58.71645822,
,,,,,,l,1,0.6332,,,,,,,,,0.6332,1,0,23,23,39,1,stimuli/blank.png,lustlos,l,DR10AD,2023-08-15_12h37.49.069,openIAT,2023.1.3,Win32,58.71645822,
,,,,,,l,1,0.9199,,,,,,,,,0.9199,1,0,24,24,17,1,stimuli/blank.png,eitel,l,DR10AD,2023-08-15_12h37.49.069,openIAT,2023.1.3,Win32,58.71645822,
,,,,,,a,1,0.6024,,,,,,,,,0.6024,1,0,25,25,10,1,stimuli/blank.png,aktiv,a,DR10AD,2023-08-15_12h37.49.069,openIAT,2023.1.3,Win32,58.71645822,
,,,,,,a,1,0.6173,,,,,,,,,0.6173,1,0,26,26,3,1,stimuli/blank.png,mir,a,DR10AD,2023-08-15_12h37.49.069,openIAT,2023.1.3,Win32,58.71645822,
,,,,,,a,1,0.6679,,,,,,,,,0.6679,1,0,27,27,14,1,stimuli/blank.png,gerecht,a,DR10AD,2023-08-15_12h37.49.069,openIAT,2023.1.3,Win32,58.71645822,
,,,,,,l,1,0.614,,,,,,,,,0.614,1,0,28,28,19,1,stimuli/blank.png,lustlos,l,DR10AD,2023-08-15_12h37.49.069,openIAT,2023.1.3,Win32,58.71645822,
,,,,,,a,1,0.6232,,,,,,,,,0.6232,1,0,29,29,16,1,stimuli/blank.png,begabt,a,DR10AD,2023-08-15_12h37.49.069,openIAT,2023.1.3,Win32,58.71645822,
,,,,,,l,1,0.651,,,,,,,,,0.651,1,0,30,30,26,1,stimuli/blank.png,euch,l,DR10AD,2023-08-15_12h37.49.069,openIAT,2023.1.3,Win32,58.71645822,
,,,,,,l,1,0.7012,,,,,,,,,0.7012,1,0,31,31,8,1,stimuli/blank.png,eure,l,DR10AD,2023-08-15_12h37.49.069,openIAT,2023.1.3,Win32,58.71645822,
,,,,,,l,0,0.851,,,,,,,,,0.851,0,0,32,32,36,1,stimuli/blank.png,begabt,a,DR10AD,2023-08-15_12h37.49.069,openIAT,2023.1.3,Win32,58.71645822,
,,,,,,a,1,0.7019,,,,,,,,,0.7019,1,0,33,33,25,1,stimuli/blank.png,meine,a,DR10AD,2023-08-15_12h37.49.069,openIAT,2023.1.3,Win32,58.71645822,
,,,,,,l,1,0.6669,,,,,,,,,0.6669,1,0,34,34,35,1,stimuli/blank.png,träge,l,DR10AD,2023-08-15_12h37.49.069,openIAT,2023.1.3,Win32,58.71645822,
,,,,,,l,1,0.6503,,,,,,,,,0.6503,1,0,35,35,28,1,stimuli/blank.png,eure,l,DR10AD,2023-08-15_12h37.49.069,openIAT,2023.1.3,Win32,58.71645822,
,,,,,,a,1,0.5512,,,,,,,,,0.5512,1,0,36,36,29,1,stimuli/blank.png,selbst,a,DR10AD,2023-08-15_12h37.49.069,openIAT,2023.1.3,Win32,58.71645822,
,,,,,,a,0,0.5005,,,,,,,,,0.5005,0,0,37,37,22,1,stimuli/blank.png,ihr,l,DR10AD,2023-08-15_12h37.49.069,openIAT,2023.1.3,Win32,58.71645822,
,,,,,,l,1,0.6684,,,,,,,,,0.6684,1,0,38,38,6,1,stimuli/blank.png,euch,l,DR10AD,2023-08-15_12h37.49.069,openIAT,2023.1.3,Win32,58.71645822,
,,,,,,l,1,0.5536,,,,,,,,,0.5536,1,0,39,39,20,1,stimuli/blank.png,andere,l,DR10AD,2023-08-15_12h37.49.069,openIAT,2023.1.3,Win32,58.71645822,
,,,,,,a,1,0.9242,,,,,,,,,0.9242,1,0,0,0,18,1,stimuli/blank.png,eure,a,DR10AD,2023-08-15_12h37.49.069,openIAT,2023.1.3,Win32,58.71645822,
,,,,,,l,1,0.5996,,,,,,,,,0.5996,1,0,1,1,17,1,stimuli/blank.png,eigene,l,DR10AD,2023-08-15_12h37.49.069,openIAT,2023.1.3,Win32,58.71645822,
,,,,,,l,1,0.4165,,,,,,,,,0.4165,1,0,2,2,7,1,stimuli/blank.png,eigene,l,DR10AD,2023-08-15_12h37.49.069,openIAT,2023.1.3,Win32,58.71645822,
,,,,,,a,1,0.6343,,,,,,,,,0.6343,1,0,3,3,4,1,stimuli/blank.png,jene,a,DR10AD,2023-08-15_12h37.49.069,openIAT,2023.1.3,Win32,58.71645822,
,,,,,,l,1,0.6161,,,,,,,,,0.6161,1,0,4,4,13,1,stimuli/blank.png,mir,l,DR10AD,2023-08-15_12h37.49.069,openIAT,2023.1.3,Win32,58.71645822,
,,,,,,a,1,0.6512,,,,,,,,,0.6512,1,0,5,5,8,1,stimuli/blank.png,eure,a,DR10AD,2023-08-15_12h37.49.069,openIAT,2023.1.3,Win32,58.71645822,
,,,,,,l,1,0.9833,,,,,,,,,0.9833,1,0,6,6,9,1,stimuli/blank.png,selbst,l,DR10AD,2023-08-15_12h37.49.069,openIAT,2023.1.3,Win32,58.71645822,
,,,,,,a,1,0.6022,,,,,,,,,0.6022,1,0,7,7,6,1,stimuli/blank.png,euch,a,DR10AD,2023-08-15_12h37.49.069,openIAT,2023.1.3,Win32,58.71645822,
,,,,,,l,1,0.5491,,,,,,,,,0.5491,1,0,8,8,19,1,stimuli/blank.png,selbst,l,DR10AD,2023-08-15_12h37.49.069,openIAT,2023.1.3,Win32,58.71645822,
,,,,,,a,1,0.7356,,,,,,,,,0.7356,1,0,9,9,14,1,stimuli/blank.png,jene,a,DR10AD,2023-08-15_12h37.49.069,openIAT,2023.1.3,Win32,58.71645822,
,,,,,,l,1,0.4511,,,,,,,,,0.4511,1,0,10,10,11,1,stimuli/blank.png,ich,l,DR10AD,2023-08-15_12h37.49.069,openIAT,2023.1.3,Win32,58.71645822,
,,,,,,a,1,0.6002,,,,,,,,,0.6002,1,0,11,11,10,1,stimuli/blank.png,andere,a,DR10AD,2023-08-15_12h37.49.069,openIAT,2023.1.3,Win32,58.71645822,
,,,,,,l,1,0.5188,,,,,,,,,0.5188,1,0,12,12,5,1,stimuli/blank.png,meine,l,DR10AD,2023-08-15_12h37.49.069,openIAT,2023.1.3,Win32,58.71645822,
,,,,,,a,1,6.3847,,0.032894737,0.021929825,1,0,0,5.9016,,6.3847,1,0,13,13,16,1,stimuli/blank.png,euch,a,DR10AD,2023-08-15_12h37.49.069,openIAT,2023.1.3,Win32,58.71645822,
,,,,,,l,1,0.7176,,,,,,,,,0.7176,1,0,14,14,1,1,stimuli/blank.png,ich,l,DR10AD,2023-08-15_12h37.49.069,openIAT,2023.1.3,Win32,58.71645822,
,,,,,,l,1,0.5509,,,,,,,,,0.5509,1,0,15,15,3,1,stimuli/blank.png,mir,l,DR10AD,2023-08-15_12h37.49.069,openIAT,2023.1.3,Win32,58.71645822,
,,,,,,a,1,0.6661,,,,,,,,,0.6661,1,0,16,16,2,1,stimuli/blank.png,ihr,a,DR10AD,2023-08-15_12h37.49.069,openIAT,2023.1.3,Win32,58.71645822,
,,,,,,a,1,0.4416,,,,,,,,,0.4416,1,0,17,17,12,1,stimuli/blank.png,ihr,a,DR10AD,2023-08-15_12h37.49.069,openIAT,2023.1.3,Win32,58.71645822,
,,,,,,l,1,0.5673,,,,,,,,,0.5673,1,0,18,18,15,1,stimuli/blank.png,meine,l,DR10AD,2023-08-15_12h37.49.069,openIAT,2023.1.3,Win32,58.71645822,
,,,,,,a,1,0.5843,,,,,,,,,0.5843,1,0,19,19,0,1,stimuli/blank.png,andere,a,DR10AD,2023-08-15_12h37.49.069,openIAT,2023.1.3,Win32,58.71645822,
,,,,,,l,1,0.5832,,,,,,,,,0.5832,1,0,0,0,13,1,stimuli/blank.png,verlogen,l,DR10AD,2023-08-15_12h37.49.069,openIAT,2023.1.3,Win32,58.71645822,
,,,,,,a,1,0.7016,,,,,,,,,0.7016,1,0,1,1,16,1,stimuli/blank.png,begabt,a,DR10AD,2023-08-15_12h37.49.069,openIAT,2023.1.3,Win32,58.71645822,
,,,,,,l,1,0.5523,,,,,,,,,0.5523,1,0,2,2,3,1,stimuli/blank.png,mir,l,DR10AD,2023-08-15_12h37.49.069,openIAT,2023.1.3,Win32,58.71645822,
,,,,,,a,1,0.5818,,,,,,,,,0.5818,1,0,3,3,6,1,stimuli/blank.png,euch,a,DR10AD,2023-08-15_12h37.49.069,openIAT,2023.1.3,Win32,58.71645822,
,,,,,,l,0,0.4721,,,,,,,,,0.4721,0,0,4,4,12,1,stimuli/blank.png,fröhlich,a,DR10AD,2023-08-15_12h37.49.069,openIAT,2023.1.3,Win32,58.71645822,
,,,,,,l,1,0.735,,,,,,,,,0.735,1,0,5,5,7,1,stimuli/blank.png,eigene,l,DR10AD,2023-08-15_12h37.49.069,openIAT,2023.1.3,Win32,58.71645822,
,,,,,,l,1,0.6487,,,,,,,,,0.6487,1,0,6,6,9,1,stimuli/blank.png,selbst,l,DR10AD,2023-08-15_12h37.49.069,openIAT,2023.1.3,Win32,58.71645822,
,,,,,,a,0,0.7006,,,,,,,,,0.7006,0,0,7,7,15,1,stimuli/blank.png,träge,l,DR10AD,2023-08-15_12h37.49.069,openIAT,2023.1.3,Win32,58.71645822,
,,,,,,l,1,1.1705,,,,,,,,,1.1705,1,0,8,8,17,1,stimuli/blank.png,eitel,l,DR10AD,2023-08-15_12h37.49.069,openIAT,2023.1.3,Win32,58.71645822,
,,,,,,l,1,0.8394,,,,,,,,,0.8394,1,0,9,9,11,1,stimuli/blank.png,brutal,l,DR10AD,2023-08-15_12h37.49.069,openIAT,2023.1.3,Win32,58.71645822,
,,,,,,a,1,0.9205,,,,,,,,,0.9205,1,0,10,10,14,1,stimuli/blank.png,gerecht,a,DR10AD,2023-08-15_12h37.49.069,openIAT,2023.1.3,Win32,58.71645822,
,,,,,,a,1,1.119,,,,,,,,,1.119,1,0,11,11,10,1,stimuli/blank.png,aktiv,a,DR10AD,2023-08-15_12h37.49.069,openIAT,2023.1.3,Win32,58.71645822,
,,,,,,a,1,0.8362,,,,,,,,,0.8362,1,0,12,12,4,1,stimuli/blank.png,jene,a,DR10AD,2023-08-15_12h37.49.069,openIAT,2023.1.3,Win32,58.71645822,
,,,,,,l,1,0.7204,,,,,,,,,0.7204,1,0,13,13,19,1,stimuli/blank.png,lustlos,l,DR10AD,2023-08-15_12h37.49.069,openIAT,2023.1.3,Win32,58.71645822,
,,,,,,a,1,1.0343,,,,,,,,,1.0343,1,0,14,14,8,1,stimuli/blank.png,eure,a,DR10AD,2023-08-15_12h37.49.069,openIAT,2023.1.3,Win32,58.71645822,
,,,,,,l,1,0.6904,,,,,,,,,0.6904,1,0,15,15,5,1,stimuli/blank.png,meine,l,DR10AD,2023-08-15_12h37.49.069,openIAT,2023.1.3,Win32,58.71645822,
,,,,,,a,1,0.835,,,,,,,,,0.835,1,0,16,16,2,1,stimuli/blank.png,ihr,a,DR10AD,2023-08-15_12h37.49.069,openIAT,2023.1.3,Win32,58.71645822,
,,,,,,l,1,0.6176,,,,,,,,,0.6176,1,0,17,17,1,1,stimuli/blank.png,ich,l,DR10AD,2023-08-15_12h37.49.069,openIAT,2023.1.3,Win32,58.71645822,
,,,,,,a,1,0.5539,,,,,,,,,0.5539,1,0,18,18,0,1,stimuli/blank.png,andere,a,DR10AD,2023-08-15_12h37.49.069,openIAT,2023.1.3,Win32,58.71645822,
,,,,,,a,1,0.7375,,,,,,,,,0.7375,1,0,19,19,18,1,stimuli/blank.png,human,a,DR10AD,2023-08-15_12h37.49.069,openIAT,2023.1.3,Win32,58.71645822,
,,,,,,l,1,0.868,,,,,,,,,0.868,1,0,0,0,5,1,stimuli/blank.png,meine,l,DR10AD,2023-08-15_12h37.49.069,openIAT,2023.1.3,Win32,58.71645822,
,,,,,,a,1,0.636,,,,,,,,,0.636,1,0,1,1,12,1,stimuli/blank.png,fröhlich,a,DR10AD,2023-08-15_12h37.49.069,openIAT,2023.1.3,Win32,58.71645822,
,,,,,,a,0,0.5877,,,,,,,,,0.5877,0,0,2,2,17,1,stimuli/blank.png,eitel,l,DR10AD,2023-08-15_12h37.49.069,openIAT,2023.1.3,Win32,58.71645822,
,,,,,,l,1,0.9209,,,,,,,,,0.9209,1,0,3,3,25,1,stimuli/blank.png,meine,l,DR10AD,2023-08-15_12h37.49.069,openIAT,2023.1.3,Win32,58.71645822,
,,,,,,l,1,0.569,,,,,,,,,0.569,1,0,4,4,37,1,stimuli/blank.png,eitel,l,DR10AD,2023-08-15_12h37.49.069,openIAT,2023.1.3,Win32,58.71645822,
,,,,,,a,0,0.9577,,,,,,,,,0.9577,0,0,5,5,31,1,stimuli/blank.png,brutal,l,DR10AD,2023-08-15_12h37.49.069,openIAT,2023.1.3,Win32,58.71645822,
,,,,,,a,1,0.9174,,,,,,,,,0.9174,1,0,6,6,20,1,stimuli/blank.png,andere,a,DR10AD,2023-08-15_12h37.49.069,openIAT,2023.1.3,Win32,58.71645822,
,,,,,,a,1,1.1218,,,,,,,,,1.1218,1,0,7,7,26,1,stimuli/blank.png,euch,a,DR10AD,2023-08-15_12h37.49.069,openIAT,2023.1.3,Win32,58.71645822,
,,,,,,a,1,0.918,,,,,,,,,0.918,1,0,8,8,32,1,stimuli/blank.png,fröhlich,a,DR10AD,2023-08-15_12h37.49.069,openIAT,2023.1.3,Win32,58.71645822,
,,,,,,l,1,0.5672,,,,,,,,,0.5672,1,0,9,9,33,1,stimuli/blank.png,verlogen,l,DR10AD,2023-08-15_12h37.49.069,openIAT,2023.1.3,Win32,58.71645822,
,,,,,,l,1,0.6052,,,,,,,,,0.6052,1,0,10,10,1,1,stimuli/blank.png,ich,l,DR10AD,2023-08-15_12h37.49.069,openIAT,2023.1.3,Win32,58.71645822,
,,,,,,l,1,0.6503,,,,,,,,,0.6503,1,0,11,11,9,1,stimuli/blank.png,selbst,l,DR10AD,2023-08-15_12h37.49.069,openIAT,2023.1.3,Win32,58.71645822,
,,,,,,a,1,0.613,,,,,,,,,0.613,1,0,12,12,2,1,stimuli/blank.png,ihr,a,DR10AD,2023-08-15_12h37.49.069,openIAT,2023.1.3,Win32,58.71645822,
,,,,,,l,1,0.6856,,,,,,,,,0.6856,1,0,13,13,19,1,stimuli/blank.png,lustlos,l,DR10AD,2023-08-15_12h37.49.069,openIAT,2023.1.3,Win32,58.71645822,
,,,,,,l,1,0.6199,,,,,,,,,0.6199,1,0,14,14,39,1,stimuli/blank.png,lustlos,l,DR10AD,2023-08-15_12h37.49.069,openIAT,2023.1.3,Win32,58.71645822,
,,,,,,a,1,0.7323,,,,,,,,,0.7323,1,0,15,15,38,1,stimuli/blank.png,human,a,DR10AD,2023-08-15_12h37.49.069,openIAT,2023.1.3,Win32,58.71645822,
,,,,,,l,1,0.7493,,,,,,,,,0.7493,1,0,16,16,7,1,stimuli/blank.png,eigene,l,DR10AD,2023-08-15_12h37.49.069,openIAT,2023.1.3,Win32,58.71645822,
,,,,,,l,1,0.5838,,,,,,,,,0.5838,1,0,17,17,21,1,stimuli/blank.png,ich,l,DR10AD,2023-08-15_12h37.49.069,openIAT,2023.1.3,Win32,58.71645822,
,,,,,,a,1,0.8853,,,,,,,,,0.8853,1,0,18,18,14,1,stimuli/blank.png,gerecht,a,DR10AD,2023-08-15_12h37.49.069,openIAT,2023.1.3,Win32,58.71645822,
,,,,,,l,1,0.5704,,,,,,,,,0.5704,1,0,19,19,11,1,stimuli/blank.png,brutal,l,DR10AD,2023-08-15_12h37.49.069,openIAT,2023.1.3,Win32,58.71645822,
,,,,,,l,1,0.6664,,,,,,,,,0.6664,1,0,20,20,15,1,stimuli/blank.png,träge,l,DR10AD,2023-08-15_12h37.49.069,openIAT,2023.1.3,Win32,58.71645822,
,,,,,,a,1,0.6339,,,,,,,,,0.6339,1,0,21,21,6,1,stimuli/blank.png,euch,a,DR10AD,2023-08-15_12h37.49.069,openIAT,2023.1.3,Win32,58.71645822,
,,,,,,l,1,0.5979,,,,,,,,,0.5979,1,0,22,22,27,1,stimuli/blank.png,eigene,l,DR10AD,2023-08-15_12h37.49.069,openIAT,2023.1.3,Win32,58.71645822,
,,,,,,l,1,0.623,,,,,,,,,0.623,1,0,23,23,3,1,stimuli/blank.png,mir,l,DR10AD,2023-08-15_12h37.49.069,openIAT,2023.1.3,Win32,58.71645822,
,,,,,,l,1,0.7152,,,,,,,,,0.7152,1,0,24,24,35,1,stimuli/blank.png,träge,l,DR10AD,2023-08-15_12h37.49.069,openIAT,2023.1.3,Win32,58.71645822,
,,,,,,a,1,0.6003,,,,,,,,,0.6003,1,0,25,25,24,1,stimuli/blank.png,jene,a,DR10AD,2023-08-15_12h37.49.069,openIAT,2023.1.3,Win32,58.71645822,
,,,,,,a,1,0.8663,,,,,,,,,0.8663,1,0,26,26,30,1,stimuli/blank.png,aktiv,a,DR10AD,2023-08-15_12h37.49.069,openIAT,2023.1.3,Win32,58.71645822,
,,,,,,a,1,0.502,,,,,,,,,0.502,1,0,27,27,10,1,stimuli/blank.png,aktiv,a,DR10AD,2023-08-15_12h37.49.069,openIAT,2023.1.3,Win32,58.71645822,
,,,,,,a,1,0.6156,,,,,,,,,0.6156,1,0,28,28,0,1,stimuli/blank.png,andere,a,DR10AD,2023-08-15_12h37.49.069,openIAT,2023.1.3,Win32,58.71645822,
,,,,,,a,1,0.8006,,,,,,,,,0.8006,1,0,29,29,34,1,stimuli/blank.png,gerecht,a,DR10AD,2023-08-15_12h37.49.069,openIAT,2023.1.3,Win32,58.71645822,
,,,,,,a,1,0.6296,,,,,,,,,0.6296,1,0,30,30,22,1,stimuli/blank.png,ihr,a,DR10AD,2023-08-15_12h37.49.069,openIAT,2023.1.3,Win32,58.71645822,
,,,,,,a,0,0.5381,,,,,,,,,0.5381,0,0,31,31,13,1,stimuli/blank.png,verlogen,l,DR10AD,2023-08-15_12h37.49.069,openIAT,2023.1.3,Win32,58.71645822,
,,,,,,a,1,0.9454,,,,,,,,,0.9454,1,0,32,32,36,1,stimuli/blank.png,begabt,a,DR10AD,2023-08-15_12h37.49.069,openIAT,2023.1.3,Win32,58.71645822,
,,,,,,a,1,0.6158,,,,,,,,,0.6158,1,0,33,33,18,1,stimuli/blank.png,human,a,DR10AD,2023-08-15_12h37.49.069,openIAT,2023.1.3,Win32,58.71645822,
,,,,,,a,1,0.8135,,,,,,,,,0.8135,1,0,34,34,28,1,stimuli/blank.png,eure,a,DR10AD,2023-08-15_12h37.49.069,openIAT,2023.1.3,Win32,58.71645822,
,,,,,,l,1,0.5827,,,,,,,,,0.5827,1,0,35,35,23,1,stimuli/blank.png,mir,l,DR10AD,2023-08-15_12h37.49.069,openIAT,2023.1.3,Win32,58.71645822,
,,,,,,a,1,0.5752,,,,,,,,,0.5752,1,0,36,36,8,1,stimuli/blank.png,eure,a,DR10AD,2023-08-15_12h37.49.069,openIAT,2023.1.3,Win32,58.71645822,
,,,,,,l,1,0.9663,,,,,,,,,0.9663,1,0,37,37,29,1,stimuli/blank.png,selbst,l,DR10AD,2023-08-15_12h37.49.069,openIAT,2023.1.3,Win32,58.71645822,
,,,,,,a,1,0.7829,,,,,,,,,0.7829,1,0,38,38,16,1,stimuli/blank.png,begabt,a,DR10AD,2023-08-15_12h37.49.069,openIAT,2023.1.3,Win32,58.71645822,
,,,,,,a,1,1.0004,,,,,,,,,1.0004,1,0,39,39,4,1,stimuli/blank.png,jene,a,DR10AD,2023-08-15_12h37.49.069,openIAT,2023.1.3,Win32,58.71645822,
,,,,,,,,,,,,,,,,,,,,,,,,,,,DR10AD,2023-08-15_12h37.49.069,openIAT,2023.1.3,Win32,58.71645822,
