instr_done_touch.x,instr_done_touch.y,instr_done_touch.leftButton,instr_done_touch.midButton,instr_done_touch.rightButton,instr_done_touch.clicked_name,key_resp.keys,key_resp.corr,key_resp.rt,key_resp.duration,touch_resp.x,touch_resp.y,touch_resp.leftButton,touch_resp.midButton,touch_resp.rightButton,touch_resp.time,touch_resp.clicked_name,rt,corr,trials.thisRepN,trials.thisTrialN,trials.thisN,trials.thisIndex,trials.ran,stimImage,stimWord,CorrAns,participant,date,expName,psychopyVersion,OS,frameRate,return_tic
0.054629644,-0.408333319,1,0,0,instr_done_button,a,1,1.4769,,,,,,,,,1.4769,1,0,0,0,10,1,stimuli/blank.png,aktiv,a,FH01FO,2023-08-26_15h02.17.271,openIAT,2023.1.3,Win32,60.21194605,
,,,,,,l,1,0.9938,,,,,,,,,0.9938,1,0,1,1,13,1,stimuli/blank.png,verlogen,l,FH01FO,2023-08-26_15h02.17.271,openIAT,2023.1.3,Win32,60.21194605,
,,,,,,l,1,1.2669,,,,,,,,,1.2669,1,0,2,2,15,1,stimuli/blank.png,träge,l,FH01FO,2023-08-26_15h02.17.271,openIAT,2023.1.3,Win32,60.21194605,
,,,,,,a,1,0.6818,,,,,,,,,0.6818,1,0,3,3,16,1,stimuli/blank.png,begabt,a,FH01FO,2023-08-26_15h02.17.271,openIAT,2023.1.3,Win32,60.21194605,
,,,,,,l,1,1.0149,,,,,,,,,1.0149,1,0,4,4,9,1,stimuli/blank.png,lustlos,l,FH01FO,2023-08-26_15h02.17.271,openIAT,2023.1.3,Win32,60.21194605,
,,,,,,l,1,0.7546,,,,,,,,,0.7546,1,0,5,5,3,1,stimuli/blank.png,verlogen,l,FH01FO,2023-08-26_15h02.17.271,openIAT,2023.1.3,Win32,60.21194605,
,,,,,,a,1,0.6134,,,,,,,,,0.6134,1,0,6,6,6,1,stimuli/blank.png,begabt,a,FH01FO,2023-08-26_15h02.17.271,openIAT,2023.1.3,Win32,60.21194605,
,,,,,,a,1,0.8126,,,,,,,,,0.8126,1,0,7,7,18,1,stimuli/blank.png,human,a,FH01FO,2023-08-26_15h02.17.271,openIAT,2023.1.3,Win32,60.21194605,
,,,,,,a,1,0.6351,,,,,,,,,0.6351,1,0,8,8,14,1,stimuli/blank.png,gerecht,a,FH01FO,2023-08-26_15h02.17.271,openIAT,2023.1.3,Win32,60.21194605,
,,,,,,a,1,0.9028,,,,,,,,,0.9028,1,0,9,9,4,1,stimuli/blank.png,gerecht,a,FH01FO,2023-08-26_15h02.17.271,openIAT,2023.1.3,Win32,60.21194605,
,,,,,,l,1,1.0834,,,,,,,,,1.0834,1,0,10,10,17,1,stimuli/blank.png,eitel,l,FH01FO,2023-08-26_15h02.17.271,openIAT,2023.1.3,Win32,60.21194605,
,,,,,,l,1,0.8123,,,,,,,,,0.8123,1,0,11,11,19,1,stimuli/blank.png,lustlos,l,FH01FO,2023-08-26_15h02.17.271,openIAT,2023.1.3,Win32,60.21194605,
,,,,,,a,1,0.6817,,,,,,,,,0.6817,1,0,12,12,12,1,stimuli/blank.png,fröhlich,a,FH01FO,2023-08-26_15h02.17.271,openIAT,2023.1.3,Win32,60.21194605,
,,,,,,a,1,0.762,,,,,,,,,0.762,1,0,13,13,8,1,stimuli/blank.png,human,a,FH01FO,2023-08-26_15h02.17.271,openIAT,2023.1.3,Win32,60.21194605,
,,,,,,a,1,0.7566,,,,,,,,,0.7566,1,0,14,14,2,1,stimuli/blank.png,fröhlich,a,FH01FO,2023-08-26_15h02.17.271,openIAT,2023.1.3,Win32,60.21194605,
,,,,,,l,1,0.5791,,,,,,,,,0.5791,1,0,15,15,1,1,stimuli/blank.png,brutal,l,FH01FO,2023-08-26_15h02.17.271,openIAT,2023.1.3,Win32,60.21194605,
,,,,,,l,1,0.4706,,,,,,,,,0.4706,1,0,16,16,11,1,stimuli/blank.png,brutal,l,FH01FO,2023-08-26_15h02.17.271,openIAT,2023.1.3,Win32,60.21194605,
,,,,,,l,1,0.7522,,,,,,,,,0.7522,1,0,17,17,5,1,stimuli/blank.png,träge,l,FH01FO,2023-08-26_15h02.17.271,openIAT,2023.1.3,Win32,60.21194605,
,,,,,,l,1,0.6182,,,,,,,,,0.6182,1,0,18,18,7,1,stimuli/blank.png,eitel,l,FH01FO,2023-08-26_15h02.17.271,openIAT,2023.1.3,Win32,60.21194605,
,,,,,,a,1,0.4966,,,,,,,,,0.4966,1,0,19,19,0,1,stimuli/blank.png,aktiv,a,FH01FO,2023-08-26_15h02.17.271,openIAT,2023.1.3,Win32,60.21194605,
,,,,,,l,1,1.2622,,,,,,,,,1.2622,1,0,0,0,6,1,stimuli/blank.png,euch,l,FH01FO,2023-08-26_15h02.17.271,openIAT,2023.1.3,Win32,60.21194605,
,,,,,,l,1,0.5213,,,,,,,,,0.5213,1,0,1,1,18,1,stimuli/blank.png,eure,l,FH01FO,2023-08-26_15h02.17.271,openIAT,2023.1.3,Win32,60.21194605,
,,,,,,a,1,0.5902,,,,,,,,,0.5902,1,0,2,2,17,1,stimuli/blank.png,eigene,a,FH01FO,2023-08-26_15h02.17.271,openIAT,2023.1.3,Win32,60.21194605,
,,,,,,l,1,0.5994,,,,,,,,,0.5994,1,0,3,3,10,1,stimuli/blank.png,andere,l,FH01FO,2023-08-26_15h02.17.271,openIAT,2023.1.3,Win32,60.21194605,
,,,,,,l,1,0.7073,,,,,,,,,0.7073,1,0,4,4,14,1,stimuli/blank.png,jene,l,FH01FO,2023-08-26_15h02.17.271,openIAT,2023.1.3,Win32,60.21194605,
,,,,,,a,1,0.4832,,,,,,,,,0.4832,1,0,5,5,13,1,stimuli/blank.png,mir,a,FH01FO,2023-08-26_15h02.17.271,openIAT,2023.1.3,Win32,60.21194605,
,,,,,,a,1,0.5212,,,,,,,,,0.5212,1,0,6,6,15,1,stimuli/blank.png,meine,a,FH01FO,2023-08-26_15h02.17.271,openIAT,2023.1.3,Win32,60.21194605,
,,,,,,a,1,0.5554,,,,,,,,,0.5554,1,0,7,7,9,1,stimuli/blank.png,selbst,a,FH01FO,2023-08-26_15h02.17.271,openIAT,2023.1.3,Win32,60.21194605,
,,,,,,a,1,0.4464,,,,,,,,,0.4464,1,0,8,8,11,1,stimuli/blank.png,ich,a,FH01FO,2023-08-26_15h02.17.271,openIAT,2023.1.3,Win32,60.21194605,
,,,,,,l,1,0.5649,,,,,,,,,0.5649,1,0,9,9,12,1,stimuli/blank.png,ihr,l,FH01FO,2023-08-26_15h02.17.271,openIAT,2023.1.3,Win32,60.21194605,
,,,,,,l,1,0.5701,,,,,,,,,0.5701,1,0,10,10,4,1,stimuli/blank.png,jene,l,FH01FO,2023-08-26_15h02.17.271,openIAT,2023.1.3,Win32,60.21194605,
,,,,,,a,1,0.506,,,,,,,,,0.506,1,0,11,11,19,1,stimuli/blank.png,selbst,a,FH01FO,2023-08-26_15h02.17.271,openIAT,2023.1.3,Win32,60.21194605,
,,,,,,a,1,0.4043,,,,,,,,,0.4043,1,0,12,12,5,1,stimuli/blank.png,meine,a,FH01FO,2023-08-26_15h02.17.271,openIAT,2023.1.3,Win32,60.21194605,
,,,,,,a,1,0.4392,,,,,,,,,0.4392,1,0,13,13,3,1,stimuli/blank.png,mir,a,FH01FO,2023-08-26_15h02.17.271,openIAT,2023.1.3,Win32,60.21194605,
,,,,,,l,1,0.6555,,,,,,,,,0.6555,1,0,14,14,8,1,stimuli/blank.png,eure,l,FH01FO,2023-08-26_15h02.17.271,openIAT,2023.1.3,Win32,60.21194605,
,,,,,,l,1,0.3719,,,,,,,,,0.3719,1,0,15,15,2,1,stimuli/blank.png,ihr,l,FH01FO,2023-08-26_15h02.17.271,openIAT,2023.1.3,Win32,60.21194605,
,,,,,,a,1,0.4995,,,,,,,,,0.4995,1,0,16,16,1,1,stimuli/blank.png,ich,a,FH01FO,2023-08-26_15h02.17.271,openIAT,2023.1.3,Win32,60.21194605,
,,,,,,a,1,0.4989,,,,,,,,,0.4989,1,0,17,17,7,1,stimuli/blank.png,eigene,a,FH01FO,2023-08-26_15h02.17.271,openIAT,2023.1.3,Win32,60.21194605,
,,,,,,l,1,0.4993,,,,,,,,,0.4993,1,0,18,18,16,1,stimuli/blank.png,euch,l,FH01FO,2023-08-26_15h02.17.271,openIAT,2023.1.3,Win32,60.21194605,
,,,,,,l,1,0.5486,,,,,,,,,0.5486,1,0,19,19,0,1,stimuli/blank.png,andere,l,FH01FO,2023-08-26_15h02.17.271,openIAT,2023.1.3,Win32,60.21194605,
,,,,,,l,1,0.5792,,,,,,,,,0.5792,1,0,0,0,13,1,stimuli/blank.png,verlogen,l,FH01FO,2023-08-26_15h02.17.271,openIAT,2023.1.3,Win32,60.21194605,
,,,,,,a,1,0.6151,,,,,,,,,0.6151,1,0,1,1,9,1,stimuli/blank.png,selbst,a,FH01FO,2023-08-26_15h02.17.271,openIAT,2023.1.3,Win32,60.21194605,
,,,,,,l,1,0.5195,,,,,,,,,0.5195,1,0,2,2,4,1,stimuli/blank.png,jene,l,FH01FO,2023-08-26_15h02.17.271,openIAT,2023.1.3,Win32,60.21194605,
,,,,,,l,1,0.4816,,,,,,,,,0.4816,1,0,3,3,0,1,stimuli/blank.png,andere,l,FH01FO,2023-08-26_15h02.17.271,openIAT,2023.1.3,Win32,60.21194605,
,,,,,,l,1,0.5317,,,,,,,,,0.5317,1,0,4,4,6,1,stimuli/blank.png,euch,l,FH01FO,2023-08-26_15h02.17.271,openIAT,2023.1.3,Win32,60.21194605,
,,,,,,l,1,0.6375,,,,,,,,,0.6375,1,0,5,5,15,1,stimuli/blank.png,träge,l,FH01FO,2023-08-26_15h02.17.271,openIAT,2023.1.3,Win32,60.21194605,
,,,,,,l,1,0.5485,,,,,,,,,0.5485,1,0,6,6,19,1,stimuli/blank.png,lustlos,l,FH01FO,2023-08-26_15h02.17.271,openIAT,2023.1.3,Win32,60.21194605,
,,,,,,l,1,0.5901,,,,,,,,,0.5901,1,0,7,7,8,1,stimuli/blank.png,eure,l,FH01FO,2023-08-26_15h02.17.271,openIAT,2023.1.3,Win32,60.21194605,
,,,,,,a,1,0.4975,,,,,,,,,0.4975,1,0,8,8,7,1,stimuli/blank.png,eigene,a,FH01FO,2023-08-26_15h02.17.271,openIAT,2023.1.3,Win32,60.21194605,
,,,,,,a,1,0.5209,,,,,,,,,0.5209,1,0,9,9,3,1,stimuli/blank.png,mir,a,FH01FO,2023-08-26_15h02.17.271,openIAT,2023.1.3,Win32,60.21194605,
,,,,,,l,1,0.7304,,,,,,,,,0.7304,1,0,10,10,17,1,stimuli/blank.png,eitel,l,FH01FO,2023-08-26_15h02.17.271,openIAT,2023.1.3,Win32,60.21194605,
,,,,,,a,1,0.6985,,,,,,,,,0.6985,1,0,11,11,16,1,stimuli/blank.png,begabt,a,FH01FO,2023-08-26_15h02.17.271,openIAT,2023.1.3,Win32,60.21194605,
,,,,,,a,1,0.5325,,,,,,,,,0.5325,1,0,12,12,1,1,stimuli/blank.png,ich,a,FH01FO,2023-08-26_15h02.17.271,openIAT,2023.1.3,Win32,60.21194605,
,,,,,,a,1,1.0332,,,,,,,,,1.0332,1,0,13,13,12,1,stimuli/blank.png,fröhlich,a,FH01FO,2023-08-26_15h02.17.271,openIAT,2023.1.3,Win32,60.21194605,
,,,,,,a,1,0.5166,,,,,,,,,0.5166,1,0,14,14,10,1,stimuli/blank.png,aktiv,a,FH01FO,2023-08-26_15h02.17.271,openIAT,2023.1.3,Win32,60.21194605,
,,,,,,a,1,0.4497,,,,,,,,,0.4497,1,0,15,15,5,1,stimuli/blank.png,meine,a,FH01FO,2023-08-26_15h02.17.271,openIAT,2023.1.3,Win32,60.21194605,
,,,,,,l,1,0.5484,,,,,,,,,0.5484,1,0,16,16,2,1,stimuli/blank.png,ihr,l,FH01FO,2023-08-26_15h02.17.271,openIAT,2023.1.3,Win32,60.21194605,
,,,,,,l,1,0.5726,,,,,,,,,0.5726,1,0,17,17,11,1,stimuli/blank.png,brutal,l,FH01FO,2023-08-26_15h02.17.271,openIAT,2023.1.3,Win32,60.21194605,
,,,,,,a,1,0.6347,,,,,,,,,0.6347,1,0,18,18,18,1,stimuli/blank.png,human,a,FH01FO,2023-08-26_15h02.17.271,openIAT,2023.1.3,Win32,60.21194605,
,,,,,,a,1,0.6379,,,,,,,,,0.6379,1,0,19,19,14,1,stimuli/blank.png,gerecht,a,FH01FO,2023-08-26_15h02.17.271,openIAT,2023.1.3,Win32,60.21194605,
,,,,,,l,1,0.5572,,,,,,,,,0.5572,1,0,0,0,13,1,stimuli/blank.png,verlogen,l,FH01FO,2023-08-26_15h02.17.271,openIAT,2023.1.3,Win32,60.21194605,
,,,,,,a,1,0.5654,,,,,,,,,0.5654,1,0,1,1,32,1,stimuli/blank.png,fröhlich,a,FH01FO,2023-08-26_15h02.17.271,openIAT,2023.1.3,Win32,60.21194605,
,,,,,,a,1,0.848,,,,,,,,,0.848,1,0,2,2,16,1,stimuli/blank.png,begabt,a,FH01FO,2023-08-26_15h02.17.271,openIAT,2023.1.3,Win32,60.21194605,
,,,,,,a,1,0.5243,,,,,,,,,0.5243,1,0,3,3,3,1,stimuli/blank.png,mir,a,FH01FO,2023-08-26_15h02.17.271,openIAT,2023.1.3,Win32,60.21194605,
,,,,,,a,1,0.5812,,,,,,,,,0.5812,1,0,4,4,34,1,stimuli/blank.png,gerecht,a,FH01FO,2023-08-26_15h02.17.271,openIAT,2023.1.3,Win32,60.21194605,
,,,,,,a,1,0.5176,,,,,,,,,0.5176,1,0,5,5,5,1,stimuli/blank.png,meine,a,FH01FO,2023-08-26_15h02.17.271,openIAT,2023.1.3,Win32,60.21194605,
,,,,,,a,0,0.7401,,,,,,,,,0.7401,0,0,6,6,35,1,stimuli/blank.png,träge,l,FH01FO,2023-08-26_15h02.17.271,openIAT,2023.1.3,Win32,60.21194605,
,,,,,,a,1,0.7244,,,,,,,,,0.7244,1,0,7,7,21,1,stimuli/blank.png,ich,a,FH01FO,2023-08-26_15h02.17.271,openIAT,2023.1.3,Win32,60.21194605,
,,,,,,l,1,0.6565,,,,,,,,,0.6565,1,0,8,8,11,1,stimuli/blank.png,brutal,l,FH01FO,2023-08-26_15h02.17.271,openIAT,2023.1.3,Win32,60.21194605,
,,,,,,l,1,0.9313,,,,,,,,,0.9313,1,0,9,9,28,1,stimuli/blank.png,eure,l,FH01FO,2023-08-26_15h02.17.271,openIAT,2023.1.3,Win32,60.21194605,
,,,,,,a,1,0.6079,,,,,,,,,0.6079,1,0,10,10,25,1,stimuli/blank.png,meine,a,FH01FO,2023-08-26_15h02.17.271,openIAT,2023.1.3,Win32,60.21194605,
,,,,,,l,1,0.5818,,,,,,,,,0.5818,1,0,11,11,39,1,stimuli/blank.png,lustlos,l,FH01FO,2023-08-26_15h02.17.271,openIAT,2023.1.3,Win32,60.21194605,
,,,,,,l,1,0.5477,,,,,,,,,0.5477,1,0,12,12,31,1,stimuli/blank.png,brutal,l,FH01FO,2023-08-26_15h02.17.271,openIAT,2023.1.3,Win32,60.21194605,
,,,,,,l,1,0.5198,,,,,,,,,0.5198,1,0,13,13,33,1,stimuli/blank.png,verlogen,l,FH01FO,2023-08-26_15h02.17.271,openIAT,2023.1.3,Win32,60.21194605,
,,,,,,l,1,0.6383,,,,,,,,,0.6383,1,0,14,14,17,1,stimuli/blank.png,eitel,l,FH01FO,2023-08-26_15h02.17.271,openIAT,2023.1.3,Win32,60.21194605,
,,,,,,a,1,0.6993,,,,,,,,,0.6993,1,0,15,15,18,1,stimuli/blank.png,human,a,FH01FO,2023-08-26_15h02.17.271,openIAT,2023.1.3,Win32,60.21194605,
,,,,,,a,1,0.5211,,,,,,,,,0.5211,1,0,16,16,23,1,stimuli/blank.png,mir,a,FH01FO,2023-08-26_15h02.17.271,openIAT,2023.1.3,Win32,60.21194605,
,,,,,,l,1,0.5252,,,,,,,,,0.5252,1,0,17,17,20,1,stimuli/blank.png,andere,l,FH01FO,2023-08-26_15h02.17.271,openIAT,2023.1.3,Win32,60.21194605,
,,,,,,a,1,0.5894,,,,,,,,,0.5894,1,0,18,18,29,1,stimuli/blank.png,selbst,a,FH01FO,2023-08-26_15h02.17.271,openIAT,2023.1.3,Win32,60.21194605,
,,,,,,a,1,0.5988,,,,,,,,,0.5988,1,0,19,19,38,1,stimuli/blank.png,human,a,FH01FO,2023-08-26_15h02.17.271,openIAT,2023.1.3,Win32,60.21194605,
,,,,,,l,1,0.5152,,,,,,,,,0.5152,1,0,20,20,6,1,stimuli/blank.png,euch,l,FH01FO,2023-08-26_15h02.17.271,openIAT,2023.1.3,Win32,60.21194605,
,,,,,,l,1,0.498,,,,,,,,,0.498,1,0,21,21,4,1,stimuli/blank.png,jene,l,FH01FO,2023-08-26_15h02.17.271,openIAT,2023.1.3,Win32,60.21194605,
,,,,,,l,1,0.4331,,,,,,,,,0.4331,1,0,22,22,24,1,stimuli/blank.png,jene,l,FH01FO,2023-08-26_15h02.17.271,openIAT,2023.1.3,Win32,60.21194605,
,,,,,,l,1,0.4313,,,,,,,,,0.4313,1,0,23,23,26,1,stimuli/blank.png,euch,l,FH01FO,2023-08-26_15h02.17.271,openIAT,2023.1.3,Win32,60.21194605,
,,,,,,a,1,0.531,,,,,,,,,0.531,1,0,24,24,12,1,stimuli/blank.png,fröhlich,a,FH01FO,2023-08-26_15h02.17.271,openIAT,2023.1.3,Win32,60.21194605,
,,,,,,l,1,0.5332,,,,,,,,,0.5332,1,0,25,25,37,1,stimuli/blank.png,eitel,l,FH01FO,2023-08-26_15h02.17.271,openIAT,2023.1.3,Win32,60.21194605,
,,,,,,a,1,0.5166,,,,,,,,,0.5166,1,0,26,26,10,1,stimuli/blank.png,aktiv,a,FH01FO,2023-08-26_15h02.17.271,openIAT,2023.1.3,Win32,60.21194605,
,,,,,,a,1,0.5976,,,,,,,,,0.5976,1,0,27,27,9,1,stimuli/blank.png,selbst,a,FH01FO,2023-08-26_15h02.17.271,openIAT,2023.1.3,Win32,60.21194605,
,,,,,,l,1,0.6815,,,,,,,,,0.6815,1,0,28,28,15,1,stimuli/blank.png,träge,l,FH01FO,2023-08-26_15h02.17.271,openIAT,2023.1.3,Win32,60.21194605,
,,,,,,a,1,0.8716,,,,,,,,,0.8716,1,0,29,29,36,1,stimuli/blank.png,begabt,a,FH01FO,2023-08-26_15h02.17.271,openIAT,2023.1.3,Win32,60.21194605,
,,,,,,l,1,0.5167,,,,,,,,,0.5167,1,0,30,30,0,1,stimuli/blank.png,andere,l,FH01FO,2023-08-26_15h02.17.271,openIAT,2023.1.3,Win32,60.21194605,
,,,,,,l,1,0.5328,,,,,,,,,0.5328,1,0,31,31,22,1,stimuli/blank.png,ihr,l,FH01FO,2023-08-26_15h02.17.271,openIAT,2023.1.3,Win32,60.21194605,
,,,,,,a,1,0.4848,,,,,,,,,0.4848,1,0,32,32,1,1,stimuli/blank.png,ich,a,FH01FO,2023-08-26_15h02.17.271,openIAT,2023.1.3,Win32,60.21194605,
,,,,,,l,1,0.5065,,,,,,,,,0.5065,1,0,33,33,8,1,stimuli/blank.png,eure,l,FH01FO,2023-08-26_15h02.17.271,openIAT,2023.1.3,Win32,60.21194605,
,,,,,,a,1,0.6873,,,,,,,,,0.6873,1,0,34,34,27,1,stimuli/blank.png,eigene,a,FH01FO,2023-08-26_15h02.17.271,openIAT,2023.1.3,Win32,60.21194605,
,,,,,,l,1,0.5147,,,,,,,,,0.5147,1,0,35,35,19,1,stimuli/blank.png,lustlos,l,FH01FO,2023-08-26_15h02.17.271,openIAT,2023.1.3,Win32,60.21194605,
,,,,,,l,1,0.6689,,,,,,,,,0.6689,1,0,36,36,2,1,stimuli/blank.png,ihr,l,FH01FO,2023-08-26_15h02.17.271,openIAT,2023.1.3,Win32,60.21194605,
,,,,,,a,1,0.5213,,,,,,,,,0.5213,1,0,37,37,7,1,stimuli/blank.png,eigene,a,FH01FO,2023-08-26_15h02.17.271,openIAT,2023.1.3,Win32,60.21194605,
,,,,,,a,1,0.7819,,,,,,,,,0.7819,1,0,38,38,14,1,stimuli/blank.png,gerecht,a,FH01FO,2023-08-26_15h02.17.271,openIAT,2023.1.3,Win32,60.21194605,
,,,,,,a,1,0.6196,,,,,,,,,0.6196,1,0,39,39,30,1,stimuli/blank.png,aktiv,a,FH01FO,2023-08-26_15h02.17.271,openIAT,2023.1.3,Win32,60.21194605,
,,,,,,a,1,0.6056,,,,,,,,,0.6056,1,0,0,0,4,1,stimuli/blank.png,jene,a,FH01FO,2023-08-26_15h02.17.271,openIAT,2023.1.3,Win32,60.21194605,
,,,,,,l,1,0.4506,,,,,,,,,0.4506,1,0,1,1,7,1,stimuli/blank.png,eigene,l,FH01FO,2023-08-26_15h02.17.271,openIAT,2023.1.3,Win32,60.21194605,
,,,,,,l,1,0.4888,,,,,,,,,0.4888,1,0,2,2,3,1,stimuli/blank.png,mir,l,FH01FO,2023-08-26_15h02.17.271,openIAT,2023.1.3,Win32,60.21194605,
,,,,,,a,1,0.5854,,,,,,,,,0.5854,1,0,3,3,16,1,stimuli/blank.png,euch,a,FH01FO,2023-08-26_15h02.17.271,openIAT,2023.1.3,Win32,60.21194605,
,,,,,,l,1,0.5117,,,,,,,,,0.5117,1,0,4,4,19,1,stimuli/blank.png,selbst,l,FH01FO,2023-08-26_15h02.17.271,openIAT,2023.1.3,Win32,60.21194605,
,,,,,,l,1,0.5384,,,,,,,,,0.5384,1,0,5,5,9,1,stimuli/blank.png,selbst,l,FH01FO,2023-08-26_15h02.17.271,openIAT,2023.1.3,Win32,60.21194605,
,,,,,,a,1,0.6468,,,,,,,,,0.6468,1,0,6,6,10,1,stimuli/blank.png,andere,a,FH01FO,2023-08-26_15h02.17.271,openIAT,2023.1.3,Win32,60.21194605,
,,,,,,a,1,0.6321,,,,,,,,,0.6321,1,0,7,7,6,1,stimuli/blank.png,euch,a,FH01FO,2023-08-26_15h02.17.271,openIAT,2023.1.3,Win32,60.21194605,
,,,,,,a,1,1.1453,,,,,,,,,1.1453,1,0,8,8,2,1,stimuli/blank.png,ihr,a,FH01FO,2023-08-26_15h02.17.271,openIAT,2023.1.3,Win32,60.21194605,
,,,,,,a,1,0.4624,,,,,,,,,0.4624,1,0,9,9,14,1,stimuli/blank.png,jene,a,FH01FO,2023-08-26_15h02.17.271,openIAT,2023.1.3,Win32,60.21194605,
,,,,,,l,1,0.631,,,,,,,,,0.631,1,0,10,10,1,1,stimuli/blank.png,ich,l,FH01FO,2023-08-26_15h02.17.271,openIAT,2023.1.3,Win32,60.21194605,
,,,,,,a,1,0.799,,,,,,,,,0.799,1,0,11,11,12,1,stimuli/blank.png,ihr,a,FH01FO,2023-08-26_15h02.17.271,openIAT,2023.1.3,Win32,60.21194605,
,,,,,,a,1,0.7427,,,,,,,,,0.7427,1,0,12,12,0,1,stimuli/blank.png,andere,a,FH01FO,2023-08-26_15h02.17.271,openIAT,2023.1.3,Win32,60.21194605,
,,,,,,l,1,0.4144,,,,,,,,,0.4144,1,0,13,13,13,1,stimuli/blank.png,mir,l,FH01FO,2023-08-26_15h02.17.271,openIAT,2023.1.3,Win32,60.21194605,
,,,,,,l,1,0.514,,,,,,,,,0.514,1,0,14,14,15,1,stimuli/blank.png,meine,l,FH01FO,2023-08-26_15h02.17.271,openIAT,2023.1.3,Win32,60.21194605,
,,,,,,l,1,0.4168,,,,,,,,,0.4168,1,0,15,15,11,1,stimuli/blank.png,ich,l,FH01FO,2023-08-26_15h02.17.271,openIAT,2023.1.3,Win32,60.21194605,
,,,,,,l,1,0.474,,,,,,,,,0.474,1,0,16,16,5,1,stimuli/blank.png,meine,l,FH01FO,2023-08-26_15h02.17.271,openIAT,2023.1.3,Win32,60.21194605,
,,,,,,l,0,0.4492,,,,,,,,,0.4492,0,0,17,17,18,1,stimuli/blank.png,eure,a,FH01FO,2023-08-26_15h02.17.271,openIAT,2023.1.3,Win32,60.21194605,
,,,,,,a,1,0.6341,,,,,,,,,0.6341,1,0,18,18,8,1,stimuli/blank.png,eure,a,FH01FO,2023-08-26_15h02.17.271,openIAT,2023.1.3,Win32,60.21194605,
,,,,,,l,1,0.533,,,,,,,,,0.533,1,0,19,19,17,1,stimuli/blank.png,eigene,l,FH01FO,2023-08-26_15h02.17.271,openIAT,2023.1.3,Win32,60.21194605,
,,,,,,l,1,0.6311,,,,,,,,,0.6311,1,0,0,0,7,1,stimuli/blank.png,eigene,l,FH01FO,2023-08-26_15h02.17.271,openIAT,2023.1.3,Win32,60.21194605,
,,,,,,l,1,0.6465,,,,,,,,,0.6465,1,0,1,1,11,1,stimuli/blank.png,brutal,l,FH01FO,2023-08-26_15h02.17.271,openIAT,2023.1.3,Win32,60.21194605,
,,,,,,a,1,0.8872,,,,,,,,,0.8872,1,0,2,2,10,1,stimuli/blank.png,aktiv,a,FH01FO,2023-08-26_15h02.17.271,openIAT,2023.1.3,Win32,60.21194605,
,,,,,,l,1,0.6728,,,,,,,,,0.6728,1,0,3,3,9,1,stimuli/blank.png,selbst,l,FH01FO,2023-08-26_15h02.17.271,openIAT,2023.1.3,Win32,60.21194605,
,,,,,,l,1,0.4802,,,,,,,,,0.4802,1,0,4,4,19,1,stimuli/blank.png,lustlos,l,FH01FO,2023-08-26_15h02.17.271,openIAT,2023.1.3,Win32,60.21194605,
,,,,,,a,1,0.6129,,,,,,,,,0.6129,1,0,5,5,16,1,stimuli/blank.png,begabt,a,FH01FO,2023-08-26_15h02.17.271,openIAT,2023.1.3,Win32,60.21194605,
,,,,,,a,1,0.7294,,,,,,,,,0.7294,1,0,6,6,8,1,stimuli/blank.png,eure,a,FH01FO,2023-08-26_15h02.17.271,openIAT,2023.1.3,Win32,60.21194605,
,,,,,,a,1,0.9134,,,,,,,,,0.9134,1,0,7,7,18,1,stimuli/blank.png,human,a,FH01FO,2023-08-26_15h02.17.271,openIAT,2023.1.3,Win32,60.21194605,
,,,,,,a,1,0.614,,,,,,,,,0.614,1,0,8,8,2,1,stimuli/blank.png,ihr,a,FH01FO,2023-08-26_15h02.17.271,openIAT,2023.1.3,Win32,60.21194605,
,,,,,,l,1,0.5887,,,,,,,,,0.5887,1,0,9,9,15,1,stimuli/blank.png,träge,l,FH01FO,2023-08-26_15h02.17.271,openIAT,2023.1.3,Win32,60.21194605,
,,,,,,a,1,0.6002,,,,,,,,,0.6002,1,0,10,10,6,1,stimuli/blank.png,euch,a,FH01FO,2023-08-26_15h02.17.271,openIAT,2023.1.3,Win32,60.21194605,
,,,,,,l,1,0.7302,,,,,,,,,0.7302,1,0,11,11,13,1,stimuli/blank.png,verlogen,l,FH01FO,2023-08-26_15h02.17.271,openIAT,2023.1.3,Win32,60.21194605,
,,,,,,l,1,0.6137,,,,,,,,,0.6137,1,0,12,12,3,1,stimuli/blank.png,mir,l,FH01FO,2023-08-26_15h02.17.271,openIAT,2023.1.3,Win32,60.21194605,
,,,,,,a,0,0.6983,,,,,,,,,0.6983,0,0,13,13,17,1,stimuli/blank.png,eitel,l,FH01FO,2023-08-26_15h02.17.271,openIAT,2023.1.3,Win32,60.21194605,
,,,,,,a,1,0.93,,,,,,,,,0.93,1,0,14,14,4,1,stimuli/blank.png,jene,a,FH01FO,2023-08-26_15h02.17.271,openIAT,2023.1.3,Win32,60.21194605,
,,,,,,a,1,0.8378,,,,,,,,,0.8378,1,0,15,15,0,1,stimuli/blank.png,andere,a,FH01FO,2023-08-26_15h02.17.271,openIAT,2023.1.3,Win32,60.21194605,
,,,,,,l,1,0.5652,,,,,,,,,0.5652,1,0,16,16,1,1,stimuli/blank.png,ich,l,FH01FO,2023-08-26_15h02.17.271,openIAT,2023.1.3,Win32,60.21194605,
,,,,,,a,1,1.0613,,,,,,,,,1.0613,1,0,17,17,14,1,stimuli/blank.png,gerecht,a,FH01FO,2023-08-26_15h02.17.271,openIAT,2023.1.3,Win32,60.21194605,
,,,,,,a,1,0.6854,,,,,,,,,0.6854,1,0,18,18,12,1,stimuli/blank.png,fröhlich,a,FH01FO,2023-08-26_15h02.17.271,openIAT,2023.1.3,Win32,60.21194605,
,,,,,,l,1,0.596,,,,,,,,,0.596,1,0,19,19,5,1,stimuli/blank.png,meine,l,FH01FO,2023-08-26_15h02.17.271,openIAT,2023.1.3,Win32,60.21194605,
,,,,,,a,1,0.7878,,,,,,,,,0.7878,1,0,0,0,4,1,stimuli/blank.png,jene,a,FH01FO,2023-08-26_15h02.17.271,openIAT,2023.1.3,Win32,60.21194605,
,,,,,,l,0,0.5998,,,,,,,,,0.5998,0,0,1,1,10,1,stimuli/blank.png,aktiv,a,FH01FO,2023-08-26_15h02.17.271,openIAT,2023.1.3,Win32,60.21194605,
,,,,,,l,1,0.5529,,,,,,,,,0.5529,1,0,2,2,1,1,stimuli/blank.png,ich,l,FH01FO,2023-08-26_15h02.17.271,openIAT,2023.1.3,Win32,60.21194605,
,,,,,,a,1,0.6299,,,,,,,,,0.6299,1,0,3,3,28,1,stimuli/blank.png,eure,a,FH01FO,2023-08-26_15h02.17.271,openIAT,2023.1.3,Win32,60.21194605,
,,,,,,a,1,1.179,,,,,,,,,1.179,1,0,4,4,16,1,stimuli/blank.png,begabt,a,FH01FO,2023-08-26_15h02.17.271,openIAT,2023.1.3,Win32,60.21194605,
,,,,,,a,1,0.5868,,,,,,,,,0.5868,1,0,5,5,24,1,stimuli/blank.png,jene,a,FH01FO,2023-08-26_15h02.17.271,openIAT,2023.1.3,Win32,60.21194605,
,,,,,,l,0,0.4227,,,,,,,,,0.4227,0,0,6,6,26,1,stimuli/blank.png,euch,a,FH01FO,2023-08-26_15h02.17.271,openIAT,2023.1.3,Win32,60.21194605,
,,,,,,l,1,0.7465,,,,,,,,,0.7465,1,0,7,7,35,1,stimuli/blank.png,träge,l,FH01FO,2023-08-26_15h02.17.271,openIAT,2023.1.3,Win32,60.21194605,
,,,,,,l,1,0.6351,,,,,,,,,0.6351,1,0,8,8,31,1,stimuli/blank.png,brutal,l,FH01FO,2023-08-26_15h02.17.271,openIAT,2023.1.3,Win32,60.21194605,
,,,,,,l,1,0.6793,,,,,,,,,0.6793,1,0,9,9,13,1,stimuli/blank.png,verlogen,l,FH01FO,2023-08-26_15h02.17.271,openIAT,2023.1.3,Win32,60.21194605,
,,,,,,l,1,0.6639,,,,,,,,,0.6639,1,0,10,10,5,1,stimuli/blank.png,meine,l,FH01FO,2023-08-26_15h02.17.271,openIAT,2023.1.3,Win32,60.21194605,
,,,,,,l,1,0.4971,,,,,,,,,0.4971,1,0,11,11,3,1,stimuli/blank.png,mir,l,FH01FO,2023-08-26_15h02.17.271,openIAT,2023.1.3,Win32,60.21194605,
,,,,,,l,1,0.6664,,,,,,,,,0.6664,1,0,12,12,9,1,stimuli/blank.png,selbst,l,FH01FO,2023-08-26_15h02.17.271,openIAT,2023.1.3,Win32,60.21194605,
,,,,,,a,1,0.8956,,,,,,,,,0.8956,1,0,13,13,12,1,stimuli/blank.png,fröhlich,a,FH01FO,2023-08-26_15h02.17.271,openIAT,2023.1.3,Win32,60.21194605,
,,,,,,a,1,0.6822,,,,,,,,,0.6822,1,0,14,14,6,1,stimuli/blank.png,euch,a,FH01FO,2023-08-26_15h02.17.271,openIAT,2023.1.3,Win32,60.21194605,
,,,,,,a,0,0.7644,,,,,,,,,0.7644,0,0,15,15,17,1,stimuli/blank.png,eitel,l,FH01FO,2023-08-26_15h02.17.271,openIAT,2023.1.3,Win32,60.21194605,
,,,,,,a,1,0.6875,,,,,,,,,0.6875,1,0,16,16,20,1,stimuli/blank.png,andere,a,FH01FO,2023-08-26_15h02.17.271,openIAT,2023.1.3,Win32,60.21194605,
,,,,,,a,1,1.6138,,,,,,,,,1.6138,1,0,17,17,8,1,stimuli/blank.png,eure,a,FH01FO,2023-08-26_15h02.17.271,openIAT,2023.1.3,Win32,60.21194605,
,,,,,,l,1,1.0808,,,,,,,,,1.0808,1,0,18,18,39,1,stimuli/blank.png,lustlos,l,FH01FO,2023-08-26_15h02.17.271,openIAT,2023.1.3,Win32,60.21194605,
,,,,,,a,1,0.7159,,,,,,,,,0.7159,1,0,19,19,36,1,stimuli/blank.png,begabt,a,FH01FO,2023-08-26_15h02.17.271,openIAT,2023.1.3,Win32,60.21194605,
,,,,,,a,1,1.8522,,,,,,,,,1.8522,1,0,20,20,34,1,stimuli/blank.png,gerecht,a,FH01FO,2023-08-26_15h02.17.271,openIAT,2023.1.3,Win32,60.21194605,
,,,,,,a,1,0.6974,,,,,,,,,0.6974,1,0,21,21,2,1,stimuli/blank.png,ihr,a,FH01FO,2023-08-26_15h02.17.271,openIAT,2023.1.3,Win32,60.21194605,
,,,,,,l,1,0.5665,,,,,,,,,0.5665,1,0,22,22,25,1,stimuli/blank.png,meine,l,FH01FO,2023-08-26_15h02.17.271,openIAT,2023.1.3,Win32,60.21194605,
,,,,,,l,1,0.7498,,,,,,,,,0.7498,1,0,23,23,37,1,stimuli/blank.png,eitel,l,FH01FO,2023-08-26_15h02.17.271,openIAT,2023.1.3,Win32,60.21194605,
,,,,,,l,1,0.6214,,,,,,,,,0.6214,1,0,24,24,33,1,stimuli/blank.png,verlogen,l,FH01FO,2023-08-26_15h02.17.271,openIAT,2023.1.3,Win32,60.21194605,
,,,,,,a,1,0.731,,,,,,,,,0.731,1,0,25,25,32,1,stimuli/blank.png,fröhlich,a,FH01FO,2023-08-26_15h02.17.271,openIAT,2023.1.3,Win32,60.21194605,
,,,,,,a,1,0.9548,,,,,,,,,0.9548,1,0,26,26,30,1,stimuli/blank.png,aktiv,a,FH01FO,2023-08-26_15h02.17.271,openIAT,2023.1.3,Win32,60.21194605,
,,,,,,a,1,0.8129,,,,,,,,,0.8129,1,0,27,27,18,1,stimuli/blank.png,human,a,FH01FO,2023-08-26_15h02.17.271,openIAT,2023.1.3,Win32,60.21194605,
,,,,,,l,1,0.7173,,,,,,,,,0.7173,1,0,28,28,29,1,stimuli/blank.png,selbst,l,FH01FO,2023-08-26_15h02.17.271,openIAT,2023.1.3,Win32,60.21194605,
,,,,,,l,1,0.6363,,,,,,,,,0.6363,1,0,29,29,15,1,stimuli/blank.png,träge,l,FH01FO,2023-08-26_15h02.17.271,openIAT,2023.1.3,Win32,60.21194605,
,,,,,,l,1,0.6801,,,,,,,,,0.6801,1,0,30,30,19,1,stimuli/blank.png,lustlos,l,FH01FO,2023-08-26_15h02.17.271,openIAT,2023.1.3,Win32,60.21194605,
,,,,,,a,1,0.6805,,,,,,,,,0.6805,1,0,31,31,38,1,stimuli/blank.png,human,a,FH01FO,2023-08-26_15h02.17.271,openIAT,2023.1.3,Win32,60.21194605,
,,,,,,l,1,0.6374,,,,,,,,,0.6374,1,0,32,32,7,1,stimuli/blank.png,eigene,l,FH01FO,2023-08-26_15h02.17.271,openIAT,2023.1.3,Win32,60.21194605,
,,,,,,l,1,0.5867,,,,,,,,,0.5867,1,0,33,33,27,1,stimuli/blank.png,eigene,l,FH01FO,2023-08-26_15h02.17.271,openIAT,2023.1.3,Win32,60.21194605,
,,,,,,a,1,0.5605,,,,,,,,,0.5605,1,0,34,34,0,1,stimuli/blank.png,andere,a,FH01FO,2023-08-26_15h02.17.271,openIAT,2023.1.3,Win32,60.21194605,
,,,,,,l,1,0.4297,,,,,,,,,0.4297,1,0,35,35,23,1,stimuli/blank.png,mir,l,FH01FO,2023-08-26_15h02.17.271,openIAT,2023.1.3,Win32,60.21194605,
,,,,,,l,1,0.5309,,,,,,,,,0.5309,1,0,36,36,11,1,stimuli/blank.png,brutal,l,FH01FO,2023-08-26_15h02.17.271,openIAT,2023.1.3,Win32,60.21194605,
,,,,,,a,1,0.5806,,,,,,,,,0.5806,1,0,37,37,22,1,stimuli/blank.png,ihr,a,FH01FO,2023-08-26_15h02.17.271,openIAT,2023.1.3,Win32,60.21194605,
,,,,,,a,1,0.8124,,,,,,,,,0.8124,1,0,38,38,14,1,stimuli/blank.png,gerecht,a,FH01FO,2023-08-26_15h02.17.271,openIAT,2023.1.3,Win32,60.21194605,
,,,,,,l,1,0.5952,,,,,,,,,0.5952,1,0,39,39,21,1,stimuli/blank.png,ich,l,FH01FO,2023-08-26_15h02.17.271,openIAT,2023.1.3,Win32,60.21194605,
,,,,,,,,,,,,,,,,,,,,,,,,,,,FH01FO,2023-08-26_15h02.17.271,openIAT,2023.1.3,Win32,60.21194605,
