instr_done_touch.x,instr_done_touch.y,instr_done_touch.leftButton,instr_done_touch.midButton,instr_done_touch.rightButton,instr_done_touch.clicked_name,key_resp.keys,key_resp.corr,key_resp.rt,key_resp.duration,touch_resp.x,touch_resp.y,touch_resp.leftButton,touch_resp.midButton,touch_resp.rightButton,touch_resp.time,touch_resp.clicked_name,rt,corr,trials.thisRepN,trials.thisTrialN,trials.thisN,trials.thisIndex,trials.ran,stimImage,stimWord,CorrAns,participant,date,expName,psychopyVersion,OS,frameRate,return_tic
-0.052777778,-0.398611111,1,0,0,instr_done_button,a,1,0.789,,,,,,,,,0.789,1,0,0,0,2,1,stimuli/blank.png,fröhlich,a,HI09HR,2023-08-09_20h28.40.046,openIAT,2023.1.3,Win32,60.0240096,
,,,,,,l,1,0.698,,,,,,,,,0.698,1,0,1,1,5,1,stimuli/blank.png,träge,l,HI09HR,2023-08-09_20h28.40.046,openIAT,2023.1.3,Win32,60.0240096,
,,,,,,a,1,0.48,,,,,,,,,0.48,1,0,2,2,0,1,stimuli/blank.png,aktiv,a,HI09HR,2023-08-09_20h28.40.046,openIAT,2023.1.3,Win32,60.0240096,
,,,,,,l,1,0.49,,,,,,,,,0.49,1,0,3,3,11,1,stimuli/blank.png,brutal,l,HI09HR,2023-08-09_20h28.40.046,openIAT,2023.1.3,Win32,60.0240096,
,,,,,,a,1,0.515,,,,,,,,,0.515,1,0,4,4,12,1,stimuli/blank.png,fröhlich,a,HI09HR,2023-08-09_20h28.40.046,openIAT,2023.1.3,Win32,60.0240096,
,,,,,,a,1,0.698,,,,,,,,,0.698,1,0,5,5,18,1,stimuli/blank.png,human,a,HI09HR,2023-08-09_20h28.40.046,openIAT,2023.1.3,Win32,60.0240096,
,,,,,,a,1,0.635,,,,,,,,,0.635,1,0,6,6,4,1,stimuli/blank.png,gerecht,a,HI09HR,2023-08-09_20h28.40.046,openIAT,2023.1.3,Win32,60.0240096,
,,,,,,l,1,0.571,,,,,,,,,0.571,1,0,7,7,15,1,stimuli/blank.png,träge,l,HI09HR,2023-08-09_20h28.40.046,openIAT,2023.1.3,Win32,60.0240096,
,,,,,,l,1,0.615,,,,,,,,,0.615,1,0,8,8,9,1,stimuli/blank.png,lustlos,l,HI09HR,2023-08-09_20h28.40.046,openIAT,2023.1.3,Win32,60.0240096,
,,,,,,l,1,0.551,,,,,,,,,0.551,1,0,9,9,3,1,stimuli/blank.png,verlogen,l,HI09HR,2023-08-09_20h28.40.046,openIAT,2023.1.3,Win32,60.0240096,
,,,,,,l,1,0.513,,,,,,,,,0.513,1,0,10,10,1,1,stimuli/blank.png,brutal,l,HI09HR,2023-08-09_20h28.40.046,openIAT,2023.1.3,Win32,60.0240096,
,,,,,,l,1,0.498,,,,,,,,,0.498,1,0,11,11,19,1,stimuli/blank.png,lustlos,l,HI09HR,2023-08-09_20h28.40.046,openIAT,2023.1.3,Win32,60.0240096,
,,,,,,a,1,0.67,,,,,,,,,0.67,1,0,12,12,14,1,stimuli/blank.png,gerecht,a,HI09HR,2023-08-09_20h28.40.046,openIAT,2023.1.3,Win32,60.0240096,
,,,,,,a,0,0.8,,,,,,,,,0.8,0,0,13,13,7,1,stimuli/blank.png,eitel,l,HI09HR,2023-08-09_20h28.40.046,openIAT,2023.1.3,Win32,60.0240096,
,,,,,,a,1,0.751,,,,,,,,,0.751,1,0,14,14,8,1,stimuli/blank.png,human,a,HI09HR,2023-08-09_20h28.40.046,openIAT,2023.1.3,Win32,60.0240096,
,,,,,,a,1,0.613,,,,,,,,,0.613,1,0,15,15,6,1,stimuli/blank.png,begabt,a,HI09HR,2023-08-09_20h28.40.046,openIAT,2023.1.3,Win32,60.0240096,
,,,,,,l,1,0.767,,,,,,,,,0.767,1,0,16,16,17,1,stimuli/blank.png,eitel,l,HI09HR,2023-08-09_20h28.40.046,openIAT,2023.1.3,Win32,60.0240096,
,,,,,,l,1,0.585,,,,,,,,,0.585,1,0,17,17,13,1,stimuli/blank.png,verlogen,l,HI09HR,2023-08-09_20h28.40.046,openIAT,2023.1.3,Win32,60.0240096,
,,,,,,a,1,0.606,,,,,,,,,0.606,1,0,18,18,16,1,stimuli/blank.png,begabt,a,HI09HR,2023-08-09_20h28.40.046,openIAT,2023.1.3,Win32,60.0240096,
,,,,,,a,1,0.552,,,,,,,,,0.552,1,0,19,19,10,1,stimuli/blank.png,aktiv,a,HI09HR,2023-08-09_20h28.40.046,openIAT,2023.1.3,Win32,60.0240096,
,,,,,,l,1,1.179,,,,,,,,,1.179,1,0,0,0,12,1,stimuli/blank.png,ihr,l,HI09HR,2023-08-09_20h28.40.046,openIAT,2023.1.3,Win32,60.0240096,
,,,,,,a,1,0.655,,,,,,,,,0.655,1,0,1,1,17,1,stimuli/blank.png,eigene,a,HI09HR,2023-08-09_20h28.40.046,openIAT,2023.1.3,Win32,60.0240096,
,,,,,,l,1,0.585,,,,,,,,,0.585,1,0,2,2,18,1,stimuli/blank.png,eure,l,HI09HR,2023-08-09_20h28.40.046,openIAT,2023.1.3,Win32,60.0240096,
,,,,,,a,1,0.663,,,,,,,,,0.663,1,0,3,3,7,1,stimuli/blank.png,eigene,a,HI09HR,2023-08-09_20h28.40.046,openIAT,2023.1.3,Win32,60.0240096,
,,,,,,a,1,0.499,,,,,,,,,0.499,1,0,4,4,11,1,stimuli/blank.png,ich,a,HI09HR,2023-08-09_20h28.40.046,openIAT,2023.1.3,Win32,60.0240096,
,,,,,,a,1,0.564,,,,,,,,,0.564,1,0,5,5,9,1,stimuli/blank.png,selbst,a,HI09HR,2023-08-09_20h28.40.046,openIAT,2023.1.3,Win32,60.0240096,
,,,,,,l,1,0.565,,,,,,,,,0.565,1,0,6,6,8,1,stimuli/blank.png,eure,l,HI09HR,2023-08-09_20h28.40.046,openIAT,2023.1.3,Win32,60.0240096,
,,,,,,a,1,0.514,,,,,,,,,0.514,1,0,7,7,15,1,stimuli/blank.png,meine,a,HI09HR,2023-08-09_20h28.40.046,openIAT,2023.1.3,Win32,60.0240096,
,,,,,,l,1,0.582,,,,,,,,,0.582,1,0,8,8,2,1,stimuli/blank.png,ihr,l,HI09HR,2023-08-09_20h28.40.046,openIAT,2023.1.3,Win32,60.0240096,
,,,,,,a,1,0.553,,,,,,,,,0.553,1,0,9,9,3,1,stimuli/blank.png,mir,a,HI09HR,2023-08-09_20h28.40.046,openIAT,2023.1.3,Win32,60.0240096,
,,,,,,a,1,0.615,,,,,,,,,0.615,1,0,10,10,19,1,stimuli/blank.png,selbst,a,HI09HR,2023-08-09_20h28.40.046,openIAT,2023.1.3,Win32,60.0240096,
,,,,,,a,1,0.502,,,,,,,,,0.502,1,0,11,11,1,1,stimuli/blank.png,ich,a,HI09HR,2023-08-09_20h28.40.046,openIAT,2023.1.3,Win32,60.0240096,
,,,,,,l,1,0.595,,,,,,,,,0.595,1,0,12,12,4,1,stimuli/blank.png,jene,l,HI09HR,2023-08-09_20h28.40.046,openIAT,2023.1.3,Win32,60.0240096,
,,,,,,l,1,0.549,,,,,,,,,0.549,1,0,13,13,10,1,stimuli/blank.png,andere,l,HI09HR,2023-08-09_20h28.40.046,openIAT,2023.1.3,Win32,60.0240096,
,,,,,,a,1,0.497,,,,,,,,,0.497,1,0,14,14,5,1,stimuli/blank.png,meine,a,HI09HR,2023-08-09_20h28.40.046,openIAT,2023.1.3,Win32,60.0240096,
,,,,,,l,1,0.615,,,,,,,,,0.615,1,0,15,15,16,1,stimuli/blank.png,euch,l,HI09HR,2023-08-09_20h28.40.046,openIAT,2023.1.3,Win32,60.0240096,
,,,,,,a,0,0.735,,,,,,,,,0.735,0,0,16,16,14,1,stimuli/blank.png,jene,l,HI09HR,2023-08-09_20h28.40.046,openIAT,2023.1.3,Win32,60.0240096,
,,,,,,l,1,1.128,,,,,,,,,1.128,1,0,17,17,0,1,stimuli/blank.png,andere,l,HI09HR,2023-08-09_20h28.40.046,openIAT,2023.1.3,Win32,60.0240096,
,,,,,,l,1,0.58,,,,,,,,,0.58,1,0,18,18,6,1,stimuli/blank.png,euch,l,HI09HR,2023-08-09_20h28.40.046,openIAT,2023.1.3,Win32,60.0240096,
,,,,,,a,1,0.539,,,,,,,,,0.539,1,0,19,19,13,1,stimuli/blank.png,mir,a,HI09HR,2023-08-09_20h28.40.046,openIAT,2023.1.3,Win32,60.0240096,
,,,,,,a,1,1.322,,,,,,,,,1.322,1,0,0,0,18,1,stimuli/blank.png,human,a,HI09HR,2023-08-09_20h28.40.046,openIAT,2023.1.3,Win32,60.0240096,
,,,,,,l,1,0.815,,,,,,,,,0.815,1,0,1,1,4,1,stimuli/blank.png,jene,l,HI09HR,2023-08-09_20h28.40.046,openIAT,2023.1.3,Win32,60.0240096,
,,,,,,a,1,0.664,,,,,,,,,0.664,1,0,2,2,12,1,stimuli/blank.png,fröhlich,a,HI09HR,2023-08-09_20h28.40.046,openIAT,2023.1.3,Win32,60.0240096,
,,,,,,a,1,0.437,,,,,,,,,0.437,1,0,3,3,3,1,stimuli/blank.png,mir,a,HI09HR,2023-08-09_20h28.40.046,openIAT,2023.1.3,Win32,60.0240096,
,,,,,,l,1,0.747,,,,,,,,,0.747,1,0,4,4,17,1,stimuli/blank.png,eitel,l,HI09HR,2023-08-09_20h28.40.046,openIAT,2023.1.3,Win32,60.0240096,
,,,,,,a,1,1.18,,,,,,,,,1.18,1,0,5,5,14,1,stimuli/blank.png,gerecht,a,HI09HR,2023-08-09_20h28.40.046,openIAT,2023.1.3,Win32,60.0240096,
,,,,,,l,1,0.683,,,,,,,,,0.683,1,0,6,6,11,1,stimuli/blank.png,brutal,l,HI09HR,2023-08-09_20h28.40.046,openIAT,2023.1.3,Win32,60.0240096,
,,,,,,a,1,0.549,,,,,,,,,0.549,1,0,7,7,1,1,stimuli/blank.png,ich,a,HI09HR,2023-08-09_20h28.40.046,openIAT,2023.1.3,Win32,60.0240096,
,,,,,,l,1,0.649,,,,,,,,,0.649,1,0,8,8,19,1,stimuli/blank.png,lustlos,l,HI09HR,2023-08-09_20h28.40.046,openIAT,2023.1.3,Win32,60.0240096,
,,,,,,a,1,0.698,,,,,,,,,0.698,1,0,9,9,7,1,stimuli/blank.png,eigene,a,HI09HR,2023-08-09_20h28.40.046,openIAT,2023.1.3,Win32,60.0240096,
,,,,,,a,1,0.604,,,,,,,,,0.604,1,0,10,10,16,1,stimuli/blank.png,begabt,a,HI09HR,2023-08-09_20h28.40.046,openIAT,2023.1.3,Win32,60.0240096,
,,,,,,l,1,0.565,,,,,,,,,0.565,1,0,11,11,6,1,stimuli/blank.png,euch,l,HI09HR,2023-08-09_20h28.40.046,openIAT,2023.1.3,Win32,60.0240096,
,,,,,,l,1,0.534,,,,,,,,,0.534,1,0,12,12,13,1,stimuli/blank.png,verlogen,l,HI09HR,2023-08-09_20h28.40.046,openIAT,2023.1.3,Win32,60.0240096,
,,,,,,l,1,0.647,,,,,,,,,0.647,1,0,13,13,15,1,stimuli/blank.png,träge,l,HI09HR,2023-08-09_20h28.40.046,openIAT,2023.1.3,Win32,60.0240096,
,,,,,,l,1,0.549,,,,,,,,,0.549,1,0,14,14,0,1,stimuli/blank.png,andere,l,HI09HR,2023-08-09_20h28.40.046,openIAT,2023.1.3,Win32,60.0240096,
,,,,,,l,1,0.549,,,,,,,,,0.549,1,0,15,15,2,1,stimuli/blank.png,ihr,l,HI09HR,2023-08-09_20h28.40.046,openIAT,2023.1.3,Win32,60.0240096,
,,,,,,a,1,0.547,,,,,,,,,0.547,1,0,16,16,9,1,stimuli/blank.png,selbst,a,HI09HR,2023-08-09_20h28.40.046,openIAT,2023.1.3,Win32,60.0240096,
,,,,,,l,1,0.597,,,,,,,,,0.597,1,0,17,17,8,1,stimuli/blank.png,eure,l,HI09HR,2023-08-09_20h28.40.046,openIAT,2023.1.3,Win32,60.0240096,
,,,,,,a,1,0.533,,,,,,,,,0.533,1,0,18,18,5,1,stimuli/blank.png,meine,a,HI09HR,2023-08-09_20h28.40.046,openIAT,2023.1.3,Win32,60.0240096,
,,,,,,a,1,0.633,,,,,,,,,0.633,1,0,19,19,10,1,stimuli/blank.png,aktiv,a,HI09HR,2023-08-09_20h28.40.046,openIAT,2023.1.3,Win32,60.0240096,
,,,,,,a,1,0.767,,,,,,,,,0.767,1,0,0,0,30,1,stimuli/blank.png,aktiv,a,HI09HR,2023-08-09_20h28.40.046,openIAT,2023.1.3,Win32,60.0240096,
,,,,,,l,1,0.579,,,,,,,,,0.579,1,0,1,1,15,1,stimuli/blank.png,träge,l,HI09HR,2023-08-09_20h28.40.046,openIAT,2023.1.3,Win32,60.0240096,
,,,,,,a,1,0.613,,,,,,,,,0.613,1,0,2,2,38,1,stimuli/blank.png,human,a,HI09HR,2023-08-09_20h28.40.046,openIAT,2023.1.3,Win32,60.0240096,
,,,,,,l,1,0.563,,,,,,,,,0.563,1,0,3,3,22,1,stimuli/blank.png,ihr,l,HI09HR,2023-08-09_20h28.40.046,openIAT,2023.1.3,Win32,60.0240096,
,,,,,,a,1,0.45,,,,,,,,,0.45,1,0,4,4,1,1,stimuli/blank.png,ich,a,HI09HR,2023-08-09_20h28.40.046,openIAT,2023.1.3,Win32,60.0240096,
,,,,,,l,1,0.485,,,,,,,,,0.485,1,0,5,5,0,1,stimuli/blank.png,andere,l,HI09HR,2023-08-09_20h28.40.046,openIAT,2023.1.3,Win32,60.0240096,
,,,,,,l,1,0.53,,,,,,,,,0.53,1,0,6,6,35,1,stimuli/blank.png,träge,l,HI09HR,2023-08-09_20h28.40.046,openIAT,2023.1.3,Win32,60.0240096,
,,,,,,l,1,0.53,,,,,,,,,0.53,1,0,7,7,2,1,stimuli/blank.png,ihr,l,HI09HR,2023-08-09_20h28.40.046,openIAT,2023.1.3,Win32,60.0240096,
,,,,,,a,1,0.464,,,,,,,,,0.464,1,0,8,8,27,1,stimuli/blank.png,eigene,a,HI09HR,2023-08-09_20h28.40.046,openIAT,2023.1.3,Win32,60.0240096,
,,,,,,a,1,0.434,,,,,,,,,0.434,1,0,9,9,21,1,stimuli/blank.png,ich,a,HI09HR,2023-08-09_20h28.40.046,openIAT,2023.1.3,Win32,60.0240096,
,,,,,,a,1,0.497,,,,,,,,,0.497,1,0,10,10,29,1,stimuli/blank.png,selbst,a,HI09HR,2023-08-09_20h28.40.046,openIAT,2023.1.3,Win32,60.0240096,
,,,,,,l,1,0.545,,,,,,,,,0.545,1,0,11,11,39,1,stimuli/blank.png,lustlos,l,HI09HR,2023-08-09_20h28.40.046,openIAT,2023.1.3,Win32,60.0240096,
,,,,,,l,1,0.613,,,,,,,,,0.613,1,0,12,12,6,1,stimuli/blank.png,euch,l,HI09HR,2023-08-09_20h28.40.046,openIAT,2023.1.3,Win32,60.0240096,
,,,,,,l,1,0.646,,,,,,,,,0.646,1,0,13,13,11,1,stimuli/blank.png,brutal,l,HI09HR,2023-08-09_20h28.40.046,openIAT,2023.1.3,Win32,60.0240096,
,,,,,,a,1,0.635,,,,,,,,,0.635,1,0,14,14,16,1,stimuli/blank.png,begabt,a,HI09HR,2023-08-09_20h28.40.046,openIAT,2023.1.3,Win32,60.0240096,
,,,,,,l,1,0.669,,,,,,,,,0.669,1,0,15,15,17,1,stimuli/blank.png,eitel,l,HI09HR,2023-08-09_20h28.40.046,openIAT,2023.1.3,Win32,60.0240096,
,,,,,,a,1,0.575,,,,,,,,,0.575,1,0,16,16,36,1,stimuli/blank.png,begabt,a,HI09HR,2023-08-09_20h28.40.046,openIAT,2023.1.3,Win32,60.0240096,
,,,,,,l,1,0.471,,,,,,,,,0.471,1,0,17,17,28,1,stimuli/blank.png,eure,l,HI09HR,2023-08-09_20h28.40.046,openIAT,2023.1.3,Win32,60.0240096,
,,,,,,a,1,0.537,,,,,,,,,0.537,1,0,18,18,12,1,stimuli/blank.png,fröhlich,a,HI09HR,2023-08-09_20h28.40.046,openIAT,2023.1.3,Win32,60.0240096,
,,,,,,a,1,0.615,,,,,,,,,0.615,1,0,19,19,7,1,stimuli/blank.png,eigene,a,HI09HR,2023-08-09_20h28.40.046,openIAT,2023.1.3,Win32,60.0240096,
,,,,,,a,1,0.632,,,,,,,,,0.632,1,0,20,20,5,1,stimuli/blank.png,meine,a,HI09HR,2023-08-09_20h28.40.046,openIAT,2023.1.3,Win32,60.0240096,
,,,,,,l,1,0.648,,,,,,,,,0.648,1,0,21,21,26,1,stimuli/blank.png,euch,l,HI09HR,2023-08-09_20h28.40.046,openIAT,2023.1.3,Win32,60.0240096,
,,,,,,l,1,0.648,,,,,,,,,0.648,1,0,22,22,24,1,stimuli/blank.png,jene,l,HI09HR,2023-08-09_20h28.40.046,openIAT,2023.1.3,Win32,60.0240096,
,,,,,,l,1,0.702,,,,,,,,,0.702,1,0,23,23,37,1,stimuli/blank.png,eitel,l,HI09HR,2023-08-09_20h28.40.046,openIAT,2023.1.3,Win32,60.0240096,
,,,,,,a,1,0.497,,,,,,,,,0.497,1,0,24,24,3,1,stimuli/blank.png,mir,a,HI09HR,2023-08-09_20h28.40.046,openIAT,2023.1.3,Win32,60.0240096,
,,,,,,l,1,0.551,,,,,,,,,0.551,1,0,25,25,8,1,stimuli/blank.png,eure,l,HI09HR,2023-08-09_20h28.40.046,openIAT,2023.1.3,Win32,60.0240096,
,,,,,,l,1,0.632,,,,,,,,,0.632,1,0,26,26,19,1,stimuli/blank.png,lustlos,l,HI09HR,2023-08-09_20h28.40.046,openIAT,2023.1.3,Win32,60.0240096,
,,,,,,l,1,0.446,,,,,,,,,0.446,1,0,27,27,4,1,stimuli/blank.png,jene,l,HI09HR,2023-08-09_20h28.40.046,openIAT,2023.1.3,Win32,60.0240096,
,,,,,,l,1,0.664,,,,,,,,,0.664,1,0,28,28,20,1,stimuli/blank.png,andere,l,HI09HR,2023-08-09_20h28.40.046,openIAT,2023.1.3,Win32,60.0240096,
,,,,,,a,1,0.516,,,,,,,,,0.516,1,0,29,29,14,1,stimuli/blank.png,gerecht,a,HI09HR,2023-08-09_20h28.40.046,openIAT,2023.1.3,Win32,60.0240096,
,,,,,,a,1,0.599,,,,,,,,,0.599,1,0,30,30,9,1,stimuli/blank.png,selbst,a,HI09HR,2023-08-09_20h28.40.046,openIAT,2023.1.3,Win32,60.0240096,
,,,,,,a,1,0.533,,,,,,,,,0.533,1,0,31,31,10,1,stimuli/blank.png,aktiv,a,HI09HR,2023-08-09_20h28.40.046,openIAT,2023.1.3,Win32,60.0240096,
,,,,,,l,1,0.482,,,,,,,,,0.482,1,0,32,32,31,1,stimuli/blank.png,brutal,l,HI09HR,2023-08-09_20h28.40.046,openIAT,2023.1.3,Win32,60.0240096,
,,,,,,l,1,0.563,,,,,,,,,0.563,1,0,33,33,33,1,stimuli/blank.png,verlogen,l,HI09HR,2023-08-09_20h28.40.046,openIAT,2023.1.3,Win32,60.0240096,
,,,,,,l,1,0.438,,,,,,,,,0.438,1,0,34,34,13,1,stimuli/blank.png,verlogen,l,HI09HR,2023-08-09_20h28.40.046,openIAT,2023.1.3,Win32,60.0240096,
,,,,,,a,1,0.665,,,,,,,,,0.665,1,0,35,35,18,1,stimuli/blank.png,human,a,HI09HR,2023-08-09_20h28.40.046,openIAT,2023.1.3,Win32,60.0240096,
,,,,,,a,1,0.603,,,,,,,,,0.603,1,0,36,36,34,1,stimuli/blank.png,gerecht,a,HI09HR,2023-08-09_20h28.40.046,openIAT,2023.1.3,Win32,60.0240096,
,,,,,,a,1,0.432,,,,,,,,,0.432,1,0,37,37,32,1,stimuli/blank.png,fröhlich,a,HI09HR,2023-08-09_20h28.40.046,openIAT,2023.1.3,Win32,60.0240096,
,,,,,,a,1,0.454,,,,,,,,,0.454,1,0,38,38,23,1,stimuli/blank.png,mir,a,HI09HR,2023-08-09_20h28.40.046,openIAT,2023.1.3,Win32,60.0240096,
,,,,,,a,1,0.431,,,,,,,,,0.431,1,0,39,39,25,1,stimuli/blank.png,meine,a,HI09HR,2023-08-09_20h28.40.046,openIAT,2023.1.3,Win32,60.0240096,
,,,,,,a,1,1.324,,,,,,,,,1.324,1,0,0,0,14,1,stimuli/blank.png,jene,a,HI09HR,2023-08-09_20h28.40.046,openIAT,2023.1.3,Win32,60.0240096,
,,,,,,a,1,0.765,,,,,,,,,0.765,1,0,1,1,0,1,stimuli/blank.png,andere,a,HI09HR,2023-08-09_20h28.40.046,openIAT,2023.1.3,Win32,60.0240096,
,,,,,,l,1,0.632,,,,,,,,,0.632,1,0,2,2,11,1,stimuli/blank.png,ich,l,HI09HR,2023-08-09_20h28.40.046,openIAT,2023.1.3,Win32,60.0240096,
,,,,,,a,1,0.822,,,,,,,,,0.822,1,0,3,3,4,1,stimuli/blank.png,jene,a,HI09HR,2023-08-09_20h28.40.046,openIAT,2023.1.3,Win32,60.0240096,
,,,,,,l,1,0.549,,,,,,,,,0.549,1,0,4,4,3,1,stimuli/blank.png,mir,l,HI09HR,2023-08-09_20h28.40.046,openIAT,2023.1.3,Win32,60.0240096,
,,,,,,a,1,0.569,,,,,,,,,0.569,1,0,5,5,16,1,stimuli/blank.png,euch,a,HI09HR,2023-08-09_20h28.40.046,openIAT,2023.1.3,Win32,60.0240096,
,,,,,,l,1,0.564,,,,,,,,,0.564,1,0,6,6,17,1,stimuli/blank.png,eigene,l,HI09HR,2023-08-09_20h28.40.046,openIAT,2023.1.3,Win32,60.0240096,
,,,,,,l,1,0.565,,,,,,,,,0.565,1,0,7,7,5,1,stimuli/blank.png,meine,l,HI09HR,2023-08-09_20h28.40.046,openIAT,2023.1.3,Win32,60.0240096,
,,,,,,l,1,0.435,,,,,,,,,0.435,1,0,8,8,15,1,stimuli/blank.png,meine,l,HI09HR,2023-08-09_20h28.40.046,openIAT,2023.1.3,Win32,60.0240096,
,,,,,,a,1,0.516,,,,,,,,,0.516,1,0,9,9,8,1,stimuli/blank.png,eure,a,HI09HR,2023-08-09_20h28.40.046,openIAT,2023.1.3,Win32,60.0240096,
,,,,,,l,1,0.549,,,,,,,,,0.549,1,0,10,10,7,1,stimuli/blank.png,eigene,l,HI09HR,2023-08-09_20h28.40.046,openIAT,2023.1.3,Win32,60.0240096,
,,,,,,a,1,0.479,,,,,,,,,0.479,1,0,11,11,10,1,stimuli/blank.png,andere,a,HI09HR,2023-08-09_20h28.40.046,openIAT,2023.1.3,Win32,60.0240096,
,,,,,,l,1,0.448,,,,,,,,,0.448,1,0,12,12,13,1,stimuli/blank.png,mir,l,HI09HR,2023-08-09_20h28.40.046,openIAT,2023.1.3,Win32,60.0240096,
,,,,,,a,1,0.581,,,,,,,,,0.581,1,0,13,13,18,1,stimuli/blank.png,eure,a,HI09HR,2023-08-09_20h28.40.046,openIAT,2023.1.3,Win32,60.0240096,
,,,,,,l,1,0.516,,,,,,,,,0.516,1,0,14,14,1,1,stimuli/blank.png,ich,l,HI09HR,2023-08-09_20h28.40.046,openIAT,2023.1.3,Win32,60.0240096,
,,,,,,a,1,0.519,,,,,,,,,0.519,1,0,15,15,6,1,stimuli/blank.png,euch,a,HI09HR,2023-08-09_20h28.40.046,openIAT,2023.1.3,Win32,60.0240096,
,,,,,,a,1,0.663,,,,,,,,,0.663,1,0,16,16,2,1,stimuli/blank.png,ihr,a,HI09HR,2023-08-09_20h28.40.046,openIAT,2023.1.3,Win32,60.0240096,
,,,,,,l,1,0.486,,,,,,,,,0.486,1,0,17,17,9,1,stimuli/blank.png,selbst,l,HI09HR,2023-08-09_20h28.40.046,openIAT,2023.1.3,Win32,60.0240096,
,,,,,,a,1,0.581,,,,,,,,,0.581,1,0,18,18,12,1,stimuli/blank.png,ihr,a,HI09HR,2023-08-09_20h28.40.046,openIAT,2023.1.3,Win32,60.0240096,
,,,,,,l,1,0.482,,,,,,,,,0.482,1,0,19,19,19,1,stimuli/blank.png,selbst,l,HI09HR,2023-08-09_20h28.40.046,openIAT,2023.1.3,Win32,60.0240096,
,,,,,,a,1,5.169,,,,,,,,,5.169,1,0,0,0,6,1,stimuli/blank.png,euch,a,HI09HR,2023-08-09_20h28.40.046,openIAT,2023.1.3,Win32,60.0240096,
,,,,,,l,0,3.647,,,,,,,,,3.647,0,0,1,1,10,1,stimuli/blank.png,aktiv,a,HI09HR,2023-08-09_20h28.40.046,openIAT,2023.1.3,Win32,60.0240096,
,,,,,,a,1,1.679,,,,,,,,,1.679,1,0,2,2,16,1,stimuli/blank.png,begabt,a,HI09HR,2023-08-09_20h28.40.046,openIAT,2023.1.3,Win32,60.0240096,
,,,,,,l,1,0.814,,,,,,,,,0.814,1,0,3,3,19,1,stimuli/blank.png,lustlos,l,HI09HR,2023-08-09_20h28.40.046,openIAT,2023.1.3,Win32,60.0240096,
,,,,,,a,1,0.553,,,,,,,,,0.553,1,0,4,4,14,1,stimuli/blank.png,gerecht,a,HI09HR,2023-08-09_20h28.40.046,openIAT,2023.1.3,Win32,60.0240096,
,,,,,,l,1,1.298,,,,,,,,,1.298,1,0,5,5,13,1,stimuli/blank.png,verlogen,l,HI09HR,2023-08-09_20h28.40.046,openIAT,2023.1.3,Win32,60.0240096,
,,,,,,a,1,0.533,,,,,,,,,0.533,1,0,6,6,12,1,stimuli/blank.png,fröhlich,a,HI09HR,2023-08-09_20h28.40.046,openIAT,2023.1.3,Win32,60.0240096,
,,,,,,a,1,1.369,,,,,,,,,1.369,1,0,7,7,0,1,stimuli/blank.png,andere,a,HI09HR,2023-08-09_20h28.40.046,openIAT,2023.1.3,Win32,60.0240096,
,,,,,,a,1,0.753,,,,,,,,,0.753,1,0,8,8,8,1,stimuli/blank.png,eure,a,HI09HR,2023-08-09_20h28.40.046,openIAT,2023.1.3,Win32,60.0240096,
,,,,,,l,1,0.628,,,,,,,,,0.628,1,0,9,9,7,1,stimuli/blank.png,eigene,l,HI09HR,2023-08-09_20h28.40.046,openIAT,2023.1.3,Win32,60.0240096,
,,,,,,l,1,0.569,,,,,,,,,0.569,1,0,10,10,11,1,stimuli/blank.png,brutal,l,HI09HR,2023-08-09_20h28.40.046,openIAT,2023.1.3,Win32,60.0240096,
,,,,,,a,1,0.747,,,,,,,,,0.747,1,0,11,11,2,1,stimuli/blank.png,ihr,a,HI09HR,2023-08-09_20h28.40.046,openIAT,2023.1.3,Win32,60.0240096,
,,,,,,l,1,0.876,,,,,,,,,0.876,1,0,12,12,1,1,stimuli/blank.png,ich,l,HI09HR,2023-08-09_20h28.40.046,openIAT,2023.1.3,Win32,60.0240096,
,,,,,,l,1,1.864,,,,,,,,,1.864,1,0,13,13,17,1,stimuli/blank.png,eitel,l,HI09HR,2023-08-09_20h28.40.046,openIAT,2023.1.3,Win32,60.0240096,
,,,,,,l,1,0.815,,,,,,,,,0.815,1,0,14,14,15,1,stimuli/blank.png,träge,l,HI09HR,2023-08-09_20h28.40.046,openIAT,2023.1.3,Win32,60.0240096,
,,,,,,a,1,0.987,,,,,,,,,0.987,1,0,15,15,18,1,stimuli/blank.png,human,a,HI09HR,2023-08-09_20h28.40.046,openIAT,2023.1.3,Win32,60.0240096,
,,,,,,l,1,2.866,,,,,,,,,2.866,1,0,16,16,3,1,stimuli/blank.png,mir,l,HI09HR,2023-08-09_20h28.40.046,openIAT,2023.1.3,Win32,60.0240096,
,,,,,,l,1,0.432,,,,,,,,,0.432,1,0,17,17,5,1,stimuli/blank.png,meine,l,HI09HR,2023-08-09_20h28.40.046,openIAT,2023.1.3,Win32,60.0240096,
,,,,,,l,1,1.196,,,,,,,,,1.196,1,0,18,18,9,1,stimuli/blank.png,selbst,l,HI09HR,2023-08-09_20h28.40.046,openIAT,2023.1.3,Win32,60.0240096,
,,,,,,a,1,0.882,,,,,,,,,0.882,1,0,19,19,4,1,stimuli/blank.png,jene,a,HI09HR,2023-08-09_20h28.40.046,openIAT,2023.1.3,Win32,60.0240096,
,,,,,,l,1,0.832,,,,,,,,,0.832,1,0,0,0,3,1,stimuli/blank.png,mir,l,HI09HR,2023-08-09_20h28.40.046,openIAT,2023.1.3,Win32,60.0240096,
,,,,,,a,1,0.747,,,,,,,,,0.747,1,0,1,1,24,1,stimuli/blank.png,jene,a,HI09HR,2023-08-09_20h28.40.046,openIAT,2023.1.3,Win32,60.0240096,
,,,,,,a,1,0.73,,,,,,,,,0.73,1,0,2,2,32,1,stimuli/blank.png,fröhlich,a,HI09HR,2023-08-09_20h28.40.046,openIAT,2023.1.3,Win32,60.0240096,
,,,,,,a,1,0.452,,,,,,,,,0.452,1,0,3,3,12,1,stimuli/blank.png,fröhlich,a,HI09HR,2023-08-09_20h28.40.046,openIAT,2023.1.3,Win32,60.0240096,
,,,,,,l,1,0.582,,,,,,,,,0.582,1,0,4,4,11,1,stimuli/blank.png,brutal,l,HI09HR,2023-08-09_20h28.40.046,openIAT,2023.1.3,Win32,60.0240096,
,,,,,,l,1,0.524,,,,,,,,,0.524,1,0,5,5,31,1,stimuli/blank.png,brutal,l,HI09HR,2023-08-09_20h28.40.046,openIAT,2023.1.3,Win32,60.0240096,
,,,,,,l,1,0.497,,,,,,,,,0.497,1,0,6,6,39,1,stimuli/blank.png,lustlos,l,HI09HR,2023-08-09_20h28.40.046,openIAT,2023.1.3,Win32,60.0240096,
,,,,,,a,1,0.719,,,,,,,,,0.719,1,0,7,7,38,1,stimuli/blank.png,human,a,HI09HR,2023-08-09_20h28.40.046,openIAT,2023.1.3,Win32,60.0240096,
,,,,,,a,1,0.618,,,,,,,,,0.618,1,0,8,8,22,1,stimuli/blank.png,ihr,a,HI09HR,2023-08-09_20h28.40.046,openIAT,2023.1.3,Win32,60.0240096,
,,,,,,l,1,0.496,,,,,,,,,0.496,1,0,9,9,1,1,stimuli/blank.png,ich,l,HI09HR,2023-08-09_20h28.40.046,openIAT,2023.1.3,Win32,60.0240096,
,,,,,,l,1,0.914,,,,,,,,,0.914,1,0,10,10,15,1,stimuli/blank.png,träge,l,HI09HR,2023-08-09_20h28.40.046,openIAT,2023.1.3,Win32,60.0240096,
,,,,,,l,1,0.764,,,,,,,,,0.764,1,0,11,11,7,1,stimuli/blank.png,eigene,l,HI09HR,2023-08-09_20h28.40.046,openIAT,2023.1.3,Win32,60.0240096,
,,,,,,l,1,0.762,,,,,,,,,0.762,1,0,12,12,17,1,stimuli/blank.png,eitel,l,HI09HR,2023-08-09_20h28.40.046,openIAT,2023.1.3,Win32,60.0240096,
,,,,,,a,1,0.714,,,,,,,,,0.714,1,0,13,13,4,1,stimuli/blank.png,jene,a,HI09HR,2023-08-09_20h28.40.046,openIAT,2023.1.3,Win32,60.0240096,
,,,,,,a,1,0.549,,,,,,,,,0.549,1,0,14,14,14,1,stimuli/blank.png,gerecht,a,HI09HR,2023-08-09_20h28.40.046,openIAT,2023.1.3,Win32,60.0240096,
,,,,,,l,1,0.683,,,,,,,,,0.683,1,0,15,15,13,1,stimuli/blank.png,verlogen,l,HI09HR,2023-08-09_20h28.40.046,openIAT,2023.1.3,Win32,60.0240096,
,,,,,,l,1,0.514,,,,,,,,,0.514,1,0,16,16,21,1,stimuli/blank.png,ich,l,HI09HR,2023-08-09_20h28.40.046,openIAT,2023.1.3,Win32,60.0240096,
,,,,,,a,1,0.537,,,,,,,,,0.537,1,0,17,17,2,1,stimuli/blank.png,ihr,a,HI09HR,2023-08-09_20h28.40.046,openIAT,2023.1.3,Win32,60.0240096,
,,,,,,l,1,0.571,,,,,,,,,0.571,1,0,18,18,25,1,stimuli/blank.png,meine,l,HI09HR,2023-08-09_20h28.40.046,openIAT,2023.1.3,Win32,60.0240096,
,,,,,,a,1,0.515,,,,,,,,,0.515,1,0,19,19,18,1,stimuli/blank.png,human,a,HI09HR,2023-08-09_20h28.40.046,openIAT,2023.1.3,Win32,60.0240096,
,,,,,,l,1,0.682,,,,,,,,,0.682,1,0,20,20,33,1,stimuli/blank.png,verlogen,l,HI09HR,2023-08-09_20h28.40.046,openIAT,2023.1.3,Win32,60.0240096,
,,,,,,l,1,0.716,,,,,,,,,0.716,1,0,21,21,35,1,stimuli/blank.png,träge,l,HI09HR,2023-08-09_20h28.40.046,openIAT,2023.1.3,Win32,60.0240096,
,,,,,,a,1,0.567,,,,,,,,,0.567,1,0,22,22,6,1,stimuli/blank.png,euch,a,HI09HR,2023-08-09_20h28.40.046,openIAT,2023.1.3,Win32,60.0240096,
,,,,,,l,1,0.613,,,,,,,,,0.613,1,0,23,23,23,1,stimuli/blank.png,mir,l,HI09HR,2023-08-09_20h28.40.046,openIAT,2023.1.3,Win32,60.0240096,
,,,,,,a,1,0.631,,,,,,,,,0.631,1,0,24,24,0,1,stimuli/blank.png,andere,a,HI09HR,2023-08-09_20h28.40.046,openIAT,2023.1.3,Win32,60.0240096,
,,,,,,a,1,0.649,,,,,,,,,0.649,1,0,25,25,28,1,stimuli/blank.png,eure,a,HI09HR,2023-08-09_20h28.40.046,openIAT,2023.1.3,Win32,60.0240096,
,,,,,,a,1,0.814,,,,,,,,,0.814,1,0,26,26,34,1,stimuli/blank.png,gerecht,a,HI09HR,2023-08-09_20h28.40.046,openIAT,2023.1.3,Win32,60.0240096,
,,,,,,a,1,0.565,,,,,,,,,0.565,1,0,27,27,36,1,stimuli/blank.png,begabt,a,HI09HR,2023-08-09_20h28.40.046,openIAT,2023.1.3,Win32,60.0240096,
,,,,,,l,1,0.733,,,,,,,,,0.733,1,0,28,28,9,1,stimuli/blank.png,selbst,l,HI09HR,2023-08-09_20h28.40.046,openIAT,2023.1.3,Win32,60.0240096,
,,,,,,a,1,0.497,,,,,,,,,0.497,1,0,29,29,26,1,stimuli/blank.png,euch,a,HI09HR,2023-08-09_20h28.40.046,openIAT,2023.1.3,Win32,60.0240096,
,,,,,,l,1,0.665,,,,,,,,,0.665,1,0,30,30,37,1,stimuli/blank.png,eitel,l,HI09HR,2023-08-09_20h28.40.046,openIAT,2023.1.3,Win32,60.0240096,
,,,,,,a,1,0.596,,,,,,,,,0.596,1,0,31,31,10,1,stimuli/blank.png,aktiv,a,HI09HR,2023-08-09_20h28.40.046,openIAT,2023.1.3,Win32,60.0240096,
,,,,,,a,1,0.613,,,,,,,,,0.613,1,0,32,32,16,1,stimuli/blank.png,begabt,a,HI09HR,2023-08-09_20h28.40.046,openIAT,2023.1.3,Win32,60.0240096,
,,,,,,a,1,0.766,,,,,,,,,0.766,1,0,33,33,20,1,stimuli/blank.png,andere,a,HI09HR,2023-08-09_20h28.40.046,openIAT,2023.1.3,Win32,60.0240096,
,,,,,,l,1,0.447,,,,,,,,,0.447,1,0,34,34,5,1,stimuli/blank.png,meine,l,HI09HR,2023-08-09_20h28.40.046,openIAT,2023.1.3,Win32,60.0240096,
,,,,,,a,1,0.498,,,,,,,,,0.498,1,0,35,35,30,1,stimuli/blank.png,aktiv,a,HI09HR,2023-08-09_20h28.40.046,openIAT,2023.1.3,Win32,60.0240096,
,,,,,,l,1,0.548,,,,,,,,,0.548,1,0,36,36,27,1,stimuli/blank.png,eigene,l,HI09HR,2023-08-09_20h28.40.046,openIAT,2023.1.3,Win32,60.0240096,
,,,,,,a,1,0.628,,,,,,,,,0.628,1,0,37,37,8,1,stimuli/blank.png,eure,a,HI09HR,2023-08-09_20h28.40.046,openIAT,2023.1.3,Win32,60.0240096,
,,,,,,l,1,0.798,,,,,,,,,0.798,1,0,38,38,19,1,stimuli/blank.png,lustlos,l,HI09HR,2023-08-09_20h28.40.046,openIAT,2023.1.3,Win32,60.0240096,
,,,,,,l,1,0.732,,,,,,,,,0.732,1,0,39,39,29,1,stimuli/blank.png,selbst,l,HI09HR,2023-08-09_20h28.40.046,openIAT,2023.1.3,Win32,60.0240096,
,,,,,,,,,,,,,,,,,,,,,,,,,,,HI09HR,2023-08-09_20h28.40.046,openIAT,2023.1.3,Win32,60.0240096,
