instr_done_touch.x,instr_done_touch.y,instr_done_touch.leftButton,instr_done_touch.midButton,instr_done_touch.rightButton,instr_done_touch.clicked_name,key_resp.keys,key_resp.corr,key_resp.rt,key_resp.duration,touch_resp.x,touch_resp.y,touch_resp.leftButton,touch_resp.midButton,touch_resp.rightButton,touch_resp.time,touch_resp.clicked_name,rt,corr,trials.thisRepN,trials.thisTrialN,trials.thisN,trials.thisIndex,trials.ran,stimImage,stimWord,CorrAns,participant,date,expName,psychopyVersion,OS,frameRate,return_tic
-0.01851849,-0.391666667,1,0,0,instr_done_button,a,1,0.6774,,,,,,,,,0.6774,1,0,0,0,18,1,stimuli/blank.png,human,a,KR01DS,2023-08-10_14h39.57.725,openIAT,2023.1.3,Win32,29.99130252,
,,,,,,a,0,0.9613,,,,,,,,,0.9613,0,0,1,1,17,1,stimuli/blank.png,eitel,l,KR01DS,2023-08-10_14h39.57.725,openIAT,2023.1.3,Win32,29.99130252,
,,,,,,l,1,0.7762,,,,,,,,,0.7762,1,0,2,2,11,1,stimuli/blank.png,brutal,l,KR01DS,2023-08-10_14h39.57.725,openIAT,2023.1.3,Win32,29.99130252,
,,,,,,l,1,0.6896,,,,,,,,,0.6896,1,0,3,3,5,1,stimuli/blank.png,träge,l,KR01DS,2023-08-10_14h39.57.725,openIAT,2023.1.3,Win32,29.99130252,
,,,,,,a,1,0.637,,,,,,,,,0.637,1,0,4,4,10,1,stimuli/blank.png,aktiv,a,KR01DS,2023-08-10_14h39.57.725,openIAT,2023.1.3,Win32,29.99130252,
,,,,,,a,1,0.6423,,,,,,,,,0.6423,1,0,5,5,12,1,stimuli/blank.png,fröhlich,a,KR01DS,2023-08-10_14h39.57.725,openIAT,2023.1.3,Win32,29.99130252,
,,,,,,a,1,0.7929,,,,,,,,,0.7929,1,0,6,6,14,1,stimuli/blank.png,gerecht,a,KR01DS,2023-08-10_14h39.57.725,openIAT,2023.1.3,Win32,29.99130252,
,,,,,,l,1,1.1723,,,,,,,,,1.1723,1,0,7,7,15,1,stimuli/blank.png,träge,l,KR01DS,2023-08-10_14h39.57.725,openIAT,2023.1.3,Win32,29.99130252,
,,,,,,l,1,0.5889,,,,,,,,,0.5889,1,0,8,8,19,1,stimuli/blank.png,lustlos,l,KR01DS,2023-08-10_14h39.57.725,openIAT,2023.1.3,Win32,29.99130252,
,,,,,,a,1,0.7357,,,,,,,,,0.7357,1,0,9,9,16,1,stimuli/blank.png,begabt,a,KR01DS,2023-08-10_14h39.57.725,openIAT,2023.1.3,Win32,29.99130252,
,,,,,,a,1,0.5682,,,,,,,,,0.5682,1,0,10,10,4,1,stimuli/blank.png,gerecht,a,KR01DS,2023-08-10_14h39.57.725,openIAT,2023.1.3,Win32,29.99130252,
,,,,,,l,1,0.669,,,,,,,,,0.669,1,0,11,11,1,1,stimuli/blank.png,brutal,l,KR01DS,2023-08-10_14h39.57.725,openIAT,2023.1.3,Win32,29.99130252,
,,,,,,l,1,1.2416,,,,,,,,,1.2416,1,0,12,12,7,1,stimuli/blank.png,eitel,l,KR01DS,2023-08-10_14h39.57.725,openIAT,2023.1.3,Win32,29.99130252,
,,,,,,l,1,0.8461,,,,,,,,,0.8461,1,0,13,13,13,1,stimuli/blank.png,verlogen,l,KR01DS,2023-08-10_14h39.57.725,openIAT,2023.1.3,Win32,29.99130252,
,,,,,,l,1,0.8342,,,,,,,,,0.8342,1,0,14,14,9,1,stimuli/blank.png,lustlos,l,KR01DS,2023-08-10_14h39.57.725,openIAT,2023.1.3,Win32,29.99130252,
,,,,,,l,1,0.7709,,,,,,,,,0.7709,1,0,15,15,3,1,stimuli/blank.png,verlogen,l,KR01DS,2023-08-10_14h39.57.725,openIAT,2023.1.3,Win32,29.99130252,
,,,,,,a,1,0.6661,,,,,,,,,0.6661,1,0,16,16,2,1,stimuli/blank.png,fröhlich,a,KR01DS,2023-08-10_14h39.57.725,openIAT,2023.1.3,Win32,29.99130252,
,,,,,,a,1,0.5165,,,,,,,,,0.5165,1,0,17,17,0,1,stimuli/blank.png,aktiv,a,KR01DS,2023-08-10_14h39.57.725,openIAT,2023.1.3,Win32,29.99130252,
,,,,,,a,1,0.7817,,,,,,,,,0.7817,1,0,18,18,6,1,stimuli/blank.png,begabt,a,KR01DS,2023-08-10_14h39.57.725,openIAT,2023.1.3,Win32,29.99130252,
,,,,,,a,1,0.5501,,,,,,,,,0.5501,1,0,19,19,8,1,stimuli/blank.png,human,a,KR01DS,2023-08-10_14h39.57.725,openIAT,2023.1.3,Win32,29.99130252,
,,,,,,a,1,0.9266,,,,,,,,,0.9266,1,0,0,0,15,1,stimuli/blank.png,meine,a,KR01DS,2023-08-10_14h39.57.725,openIAT,2023.1.3,Win32,29.99130252,
,,,,,,a,1,0.6504,,,,,,,,,0.6504,1,0,1,1,5,1,stimuli/blank.png,meine,a,KR01DS,2023-08-10_14h39.57.725,openIAT,2023.1.3,Win32,29.99130252,
,,,,,,l,1,0.7662,,,,,,,,,0.7662,1,0,2,2,10,1,stimuli/blank.png,andere,l,KR01DS,2023-08-10_14h39.57.725,openIAT,2023.1.3,Win32,29.99130252,
,,,,,,l,1,0.7374,,,,,,,,,0.7374,1,0,3,3,16,1,stimuli/blank.png,euch,l,KR01DS,2023-08-10_14h39.57.725,openIAT,2023.1.3,Win32,29.99130252,
,,,,,,l,1,0.684,,,,,,,,,0.684,1,0,4,4,2,1,stimuli/blank.png,ihr,l,KR01DS,2023-08-10_14h39.57.725,openIAT,2023.1.3,Win32,29.99130252,
,,,,,,l,1,0.5786,,,,,,,,,0.5786,1,0,5,5,8,1,stimuli/blank.png,eure,l,KR01DS,2023-08-10_14h39.57.725,openIAT,2023.1.3,Win32,29.99130252,
,,,,,,a,1,0.5813,,,,,,,,,0.5813,1,0,6,6,9,1,stimuli/blank.png,selbst,a,KR01DS,2023-08-10_14h39.57.725,openIAT,2023.1.3,Win32,29.99130252,
,,,,,,l,1,0.6779,,,,,,,,,0.6779,1,0,7,7,4,1,stimuli/blank.png,jene,l,KR01DS,2023-08-10_14h39.57.725,openIAT,2023.1.3,Win32,29.99130252,
,,,,,,a,1,0.5338,,,,,,,,,0.5338,1,0,8,8,1,1,stimuli/blank.png,ich,a,KR01DS,2023-08-10_14h39.57.725,openIAT,2023.1.3,Win32,29.99130252,
,,,,,,a,1,0.4876,,,,,,,,,0.4876,1,0,9,9,13,1,stimuli/blank.png,mir,a,KR01DS,2023-08-10_14h39.57.725,openIAT,2023.1.3,Win32,29.99130252,
,,,,,,l,1,0.5478,,,,,,,,,0.5478,1,0,10,10,18,1,stimuli/blank.png,eure,l,KR01DS,2023-08-10_14h39.57.725,openIAT,2023.1.3,Win32,29.99130252,
,,,,,,a,1,0.6526,,,,,,,,,0.6526,1,0,11,11,3,1,stimuli/blank.png,mir,a,KR01DS,2023-08-10_14h39.57.725,openIAT,2023.1.3,Win32,29.99130252,
,,,,,,l,1,0.5655,,,,,,,,,0.5655,1,0,12,12,14,1,stimuli/blank.png,jene,l,KR01DS,2023-08-10_14h39.57.725,openIAT,2023.1.3,Win32,29.99130252,
,,,,,,a,0,0.4815,,,,,,,,,0.4815,0,0,13,13,12,1,stimuli/blank.png,ihr,l,KR01DS,2023-08-10_14h39.57.725,openIAT,2023.1.3,Win32,29.99130252,
,,,,,,a,1,0.8782,,,,,,,,,0.8782,1,0,14,14,17,1,stimuli/blank.png,eigene,a,KR01DS,2023-08-10_14h39.57.725,openIAT,2023.1.3,Win32,29.99130252,
,,,,,,a,1,0.6227,,,,,,,,,0.6227,1,0,15,15,11,1,stimuli/blank.png,ich,a,KR01DS,2023-08-10_14h39.57.725,openIAT,2023.1.3,Win32,29.99130252,
,,,,,,a,1,0.6626,,,,,,,,,0.6626,1,0,16,16,19,1,stimuli/blank.png,selbst,a,KR01DS,2023-08-10_14h39.57.725,openIAT,2023.1.3,Win32,29.99130252,
,,,,,,l,1,0.7077,,,,,,,,,0.7077,1,0,17,17,6,1,stimuli/blank.png,euch,l,KR01DS,2023-08-10_14h39.57.725,openIAT,2023.1.3,Win32,29.99130252,
,,,,,,a,1,1.0471,,,,,,,,,1.0471,1,0,18,18,7,1,stimuli/blank.png,eigene,a,KR01DS,2023-08-10_14h39.57.725,openIAT,2023.1.3,Win32,29.99130252,
,,,,,,l,1,0.5716,,,,,,,,,0.5716,1,0,19,19,0,1,stimuli/blank.png,andere,l,KR01DS,2023-08-10_14h39.57.725,openIAT,2023.1.3,Win32,29.99130252,
,,,,,,l,1,1.1486,,,,,,,,,1.1486,1,0,0,0,13,1,stimuli/blank.png,verlogen,l,KR01DS,2023-08-10_14h39.57.725,openIAT,2023.1.3,Win32,29.99130252,
,,,,,,a,1,0.7044,,,,,,,,,0.7044,1,0,1,1,16,1,stimuli/blank.png,begabt,a,KR01DS,2023-08-10_14h39.57.725,openIAT,2023.1.3,Win32,29.99130252,
,,,,,,l,1,0.8858,,,,,,,,,0.8858,1,0,2,2,17,1,stimuli/blank.png,eitel,l,KR01DS,2023-08-10_14h39.57.725,openIAT,2023.1.3,Win32,29.99130252,
,,,,,,a,1,0.6257,,,,,,,,,0.6257,1,0,3,3,1,1,stimuli/blank.png,ich,a,KR01DS,2023-08-10_14h39.57.725,openIAT,2023.1.3,Win32,29.99130252,
,,,,,,a,1,0.5749,,,,,,,,,0.5749,1,0,4,4,5,1,stimuli/blank.png,meine,a,KR01DS,2023-08-10_14h39.57.725,openIAT,2023.1.3,Win32,29.99130252,
,,,,,,a,1,0.5479,,,,,,,,,0.5479,1,0,5,5,3,1,stimuli/blank.png,mir,a,KR01DS,2023-08-10_14h39.57.725,openIAT,2023.1.3,Win32,29.99130252,
,,,,,,l,1,0.7032,,,,,,,,,0.7032,1,0,6,6,19,1,stimuli/blank.png,lustlos,l,KR01DS,2023-08-10_14h39.57.725,openIAT,2023.1.3,Win32,29.99130252,
,,,,,,l,1,0.6327,,,,,,,,,0.6327,1,0,7,7,4,1,stimuli/blank.png,jene,l,KR01DS,2023-08-10_14h39.57.725,openIAT,2023.1.3,Win32,29.99130252,
,,,,,,l,1,0.5707,,,,,,,,,0.5707,1,0,8,8,15,1,stimuli/blank.png,träge,l,KR01DS,2023-08-10_14h39.57.725,openIAT,2023.1.3,Win32,29.99130252,
,,,,,,a,1,0.5446,,,,,,,,,0.5446,1,0,9,9,18,1,stimuli/blank.png,human,a,KR01DS,2023-08-10_14h39.57.725,openIAT,2023.1.3,Win32,29.99130252,
,,,,,,a,0,0.5153,0.0363,,,,,,,,0.5153,0,0,10,10,8,1,stimuli/blank.png,eure,l,KR01DS,2023-08-10_14h39.57.725,openIAT,2023.1.3,Win32,29.99130252,
,,,,,,a,1,0.9663,,,,,,,,,0.9663,1,0,11,11,10,1,stimuli/blank.png,aktiv,a,KR01DS,2023-08-10_14h39.57.725,openIAT,2023.1.3,Win32,29.99130252,
,,,,,,a,1,0.7545,,,,,,,,,0.7545,1,0,12,12,7,1,stimuli/blank.png,eigene,a,KR01DS,2023-08-10_14h39.57.725,openIAT,2023.1.3,Win32,29.99130252,
,,,,,,l,1,0.7765,,,,,,,,,0.7765,1,0,13,13,0,1,stimuli/blank.png,andere,l,KR01DS,2023-08-10_14h39.57.725,openIAT,2023.1.3,Win32,29.99130252,
,,,,,,l,1,0.6132,,,,,,,,,0.6132,1,0,14,14,2,1,stimuli/blank.png,ihr,l,KR01DS,2023-08-10_14h39.57.725,openIAT,2023.1.3,Win32,29.99130252,
,,,,,,l,1,0.5375,,,,,,,,,0.5375,1,0,15,15,6,1,stimuli/blank.png,euch,l,KR01DS,2023-08-10_14h39.57.725,openIAT,2023.1.3,Win32,29.99130252,
,,,,,,a,1,0.7694,,,,,,,,,0.7694,1,0,16,16,14,1,stimuli/blank.png,gerecht,a,KR01DS,2023-08-10_14h39.57.725,openIAT,2023.1.3,Win32,29.99130252,
,,,,,,a,1,0.6027,,,,,,,,,0.6027,1,0,17,17,12,1,stimuli/blank.png,fröhlich,a,KR01DS,2023-08-10_14h39.57.725,openIAT,2023.1.3,Win32,29.99130252,
,,,,,,a,1,0.519,,,,,,,,,0.519,1,0,18,18,9,1,stimuli/blank.png,selbst,a,KR01DS,2023-08-10_14h39.57.725,openIAT,2023.1.3,Win32,29.99130252,
,,,,,,l,1,0.6196,,,,,,,,,0.6196,1,0,19,19,11,1,stimuli/blank.png,brutal,l,KR01DS,2023-08-10_14h39.57.725,openIAT,2023.1.3,Win32,29.99130252,
,,,,,,a,1,0.6384,,,,,,,,,0.6384,1,0,0,0,25,1,stimuli/blank.png,meine,a,KR01DS,2023-08-10_14h39.57.725,openIAT,2023.1.3,Win32,29.99130252,
,,,,,,l,1,0.6496,,,,,,,,,0.6496,1,0,1,1,37,1,stimuli/blank.png,eitel,l,KR01DS,2023-08-10_14h39.57.725,openIAT,2023.1.3,Win32,29.99130252,
,,,,,,a,1,0.7439,,,,,,,,,0.7439,1,0,2,2,10,1,stimuli/blank.png,aktiv,a,KR01DS,2023-08-10_14h39.57.725,openIAT,2023.1.3,Win32,29.99130252,
,,,,,,l,1,0.6516,,,,,,,,,0.6516,1,0,3,3,11,1,stimuli/blank.png,brutal,l,KR01DS,2023-08-10_14h39.57.725,openIAT,2023.1.3,Win32,29.99130252,
,,,,,,a,1,0.6812,,,,,,,,,0.6812,1,0,4,4,5,1,stimuli/blank.png,meine,a,KR01DS,2023-08-10_14h39.57.725,openIAT,2023.1.3,Win32,29.99130252,
,,,,,,a,1,0.5299,,,,,,,,,0.5299,1,0,5,5,12,1,stimuli/blank.png,fröhlich,a,KR01DS,2023-08-10_14h39.57.725,openIAT,2023.1.3,Win32,29.99130252,
,,,,,,l,1,0.5668,,,,,,,,,0.5668,1,0,6,6,39,1,stimuli/blank.png,lustlos,l,KR01DS,2023-08-10_14h39.57.725,openIAT,2023.1.3,Win32,29.99130252,
,,,,,,l,1,0.5663,,,,,,,,,0.5663,1,0,7,7,33,1,stimuli/blank.png,verlogen,l,KR01DS,2023-08-10_14h39.57.725,openIAT,2023.1.3,Win32,29.99130252,
,,,,,,a,1,0.7028,,,,,,,,,0.7028,1,0,8,8,36,1,stimuli/blank.png,begabt,a,KR01DS,2023-08-10_14h39.57.725,openIAT,2023.1.3,Win32,29.99130252,
,,,,,,l,1,0.6009,,,,,,,,,0.6009,1,0,9,9,4,1,stimuli/blank.png,jene,l,KR01DS,2023-08-10_14h39.57.725,openIAT,2023.1.3,Win32,29.99130252,
,,,,,,a,1,0.5531,,,,,,,,,0.5531,1,0,10,10,1,1,stimuli/blank.png,ich,a,KR01DS,2023-08-10_14h39.57.725,openIAT,2023.1.3,Win32,29.99130252,
,,,,,,l,1,0.5273,,,,,,,,,0.5273,1,0,11,11,8,1,stimuli/blank.png,eure,l,KR01DS,2023-08-10_14h39.57.725,openIAT,2023.1.3,Win32,29.99130252,
,,,,,,l,1,0.7318,,,,,,,,,0.7318,1,0,12,12,19,1,stimuli/blank.png,lustlos,l,KR01DS,2023-08-10_14h39.57.725,openIAT,2023.1.3,Win32,29.99130252,
,,,,,,a,1,0.5767,,,,,,,,,0.5767,1,0,13,13,32,1,stimuli/blank.png,fröhlich,a,KR01DS,2023-08-10_14h39.57.725,openIAT,2023.1.3,Win32,29.99130252,
,,,,,,a,1,0.5511,,,,,,,,,0.5511,1,0,14,14,18,1,stimuli/blank.png,human,a,KR01DS,2023-08-10_14h39.57.725,openIAT,2023.1.3,Win32,29.99130252,
,,,,,,l,1,0.5682,,,,,,,,,0.5682,1,0,15,15,24,1,stimuli/blank.png,jene,l,KR01DS,2023-08-10_14h39.57.725,openIAT,2023.1.3,Win32,29.99130252,
,,,,,,l,1,0.486,,,,,,,,,0.486,1,0,16,16,13,1,stimuli/blank.png,verlogen,l,KR01DS,2023-08-10_14h39.57.725,openIAT,2023.1.3,Win32,29.99130252,
,,,,,,l,1,0.6735,,,,,,,,,0.6735,1,0,17,17,17,1,stimuli/blank.png,eitel,l,KR01DS,2023-08-10_14h39.57.725,openIAT,2023.1.3,Win32,29.99130252,
,,,,,,l,1,0.613,,,,,,,,,0.613,1,0,18,18,15,1,stimuli/blank.png,träge,l,KR01DS,2023-08-10_14h39.57.725,openIAT,2023.1.3,Win32,29.99130252,
,,,,,,l,0,0.5538,,,,,,,,,0.5538,0,0,19,19,27,1,stimuli/blank.png,eigene,a,KR01DS,2023-08-10_14h39.57.725,openIAT,2023.1.3,Win32,29.99130252,
,,,,,,l,1,1.5432,,,,,,,,,1.5432,1,0,20,20,31,1,stimuli/blank.png,brutal,l,KR01DS,2023-08-10_14h39.57.725,openIAT,2023.1.3,Win32,29.99130252,
,,,,,,a,1,0.7314,,,,,,,,,0.7314,1,0,21,21,34,1,stimuli/blank.png,gerecht,a,KR01DS,2023-08-10_14h39.57.725,openIAT,2023.1.3,Win32,29.99130252,
,,,,,,a,1,0.6238,,,,,,,,,0.6238,1,0,22,22,29,1,stimuli/blank.png,selbst,a,KR01DS,2023-08-10_14h39.57.725,openIAT,2023.1.3,Win32,29.99130252,
,,,,,,l,1,0.5799,,,,,,,,,0.5799,1,0,23,23,20,1,stimuli/blank.png,andere,l,KR01DS,2023-08-10_14h39.57.725,openIAT,2023.1.3,Win32,29.99130252,
,,,,,,a,1,0.5474,,,,,,,,,0.5474,1,0,24,24,7,1,stimuli/blank.png,eigene,a,KR01DS,2023-08-10_14h39.57.725,openIAT,2023.1.3,Win32,29.99130252,
,,,,,,a,1,0.6579,,,,,,,,,0.6579,1,0,25,25,14,1,stimuli/blank.png,gerecht,a,KR01DS,2023-08-10_14h39.57.725,openIAT,2023.1.3,Win32,29.99130252,
,,,,,,a,1,0.5836,,,,,,,,,0.5836,1,0,26,26,23,1,stimuli/blank.png,mir,a,KR01DS,2023-08-10_14h39.57.725,openIAT,2023.1.3,Win32,29.99130252,
,,,,,,a,1,0.5577,,,,,,,,,0.5577,1,0,27,27,3,1,stimuli/blank.png,mir,a,KR01DS,2023-08-10_14h39.57.725,openIAT,2023.1.3,Win32,29.99130252,
,,,,,,l,1,0.5287,,,,,,,,,0.5287,1,0,28,28,26,1,stimuli/blank.png,euch,l,KR01DS,2023-08-10_14h39.57.725,openIAT,2023.1.3,Win32,29.99130252,
,,,,,,l,1,0.5066,,,,,,,,,0.5066,1,0,29,29,6,1,stimuli/blank.png,euch,l,KR01DS,2023-08-10_14h39.57.725,openIAT,2023.1.3,Win32,29.99130252,
,,,,,,l,1,0.6398,,,,,,,,,0.6398,1,0,30,30,22,1,stimuli/blank.png,ihr,l,KR01DS,2023-08-10_14h39.57.725,openIAT,2023.1.3,Win32,29.99130252,
,,,,,,a,1,0.5821,,,,,,,,,0.5821,1,0,31,31,21,1,stimuli/blank.png,ich,a,KR01DS,2023-08-10_14h39.57.725,openIAT,2023.1.3,Win32,29.99130252,
,,,,,,a,1,0.6135,,,,,,,,,0.6135,1,0,32,32,9,1,stimuli/blank.png,selbst,a,KR01DS,2023-08-10_14h39.57.725,openIAT,2023.1.3,Win32,29.99130252,
,,,,,,l,1,0.4602,,,,,,,,,0.4602,1,0,33,33,0,1,stimuli/blank.png,andere,l,KR01DS,2023-08-10_14h39.57.725,openIAT,2023.1.3,Win32,29.99130252,
,,,,,,l,1,0.663,,,,,,,,,0.663,1,0,34,34,28,1,stimuli/blank.png,eure,l,KR01DS,2023-08-10_14h39.57.725,openIAT,2023.1.3,Win32,29.99130252,
,,,,,,a,1,0.5689,,,,,,,,,0.5689,1,0,35,35,16,1,stimuli/blank.png,begabt,a,KR01DS,2023-08-10_14h39.57.725,openIAT,2023.1.3,Win32,29.99130252,
,,,,,,l,1,0.4947,,,,,,,,,0.4947,1,0,36,36,2,1,stimuli/blank.png,ihr,l,KR01DS,2023-08-10_14h39.57.725,openIAT,2023.1.3,Win32,29.99130252,
,,,,,,a,1,0.576,,,,,,,,,0.576,1,0,37,37,38,1,stimuli/blank.png,human,a,KR01DS,2023-08-10_14h39.57.725,openIAT,2023.1.3,Win32,29.99130252,
,,,,,,l,1,0.5606,,,,,,,,,0.5606,1,0,38,38,35,1,stimuli/blank.png,träge,l,KR01DS,2023-08-10_14h39.57.725,openIAT,2023.1.3,Win32,29.99130252,
,,,,,,a,1,0.8504,,,,,,,,,0.8504,1,0,39,39,30,1,stimuli/blank.png,aktiv,a,KR01DS,2023-08-10_14h39.57.725,openIAT,2023.1.3,Win32,29.99130252,
,,,,,,a,1,1.0965,,,,,,,,,1.0965,1,0,0,0,12,1,stimuli/blank.png,ihr,a,KR01DS,2023-08-10_14h39.57.725,openIAT,2023.1.3,Win32,29.99130252,
,,,,,,a,1,0.5981,,,,,,,,,0.5981,1,0,1,1,16,1,stimuli/blank.png,euch,a,KR01DS,2023-08-10_14h39.57.725,openIAT,2023.1.3,Win32,29.99130252,
,,,,,,a,1,0.4746,,,,,,,,,0.4746,1,0,2,2,8,1,stimuli/blank.png,eure,a,KR01DS,2023-08-10_14h39.57.725,openIAT,2023.1.3,Win32,29.99130252,
,,,,,,l,1,0.578,,,,,,,,,0.578,1,0,3,3,9,1,stimuli/blank.png,selbst,l,KR01DS,2023-08-10_14h39.57.725,openIAT,2023.1.3,Win32,29.99130252,
,,,,,,a,1,0.7346,,,,,,,,,0.7346,1,0,4,4,0,1,stimuli/blank.png,andere,a,KR01DS,2023-08-10_14h39.57.725,openIAT,2023.1.3,Win32,29.99130252,
,,,,,,l,1,0.5855,,,,,,,,,0.5855,1,0,5,5,15,1,stimuli/blank.png,meine,l,KR01DS,2023-08-10_14h39.57.725,openIAT,2023.1.3,Win32,29.99130252,
,,,,,,a,1,0.4981,,,,,,,,,0.4981,1,0,6,6,14,1,stimuli/blank.png,jene,a,KR01DS,2023-08-10_14h39.57.725,openIAT,2023.1.3,Win32,29.99130252,
,,,,,,l,1,0.4201,,,,,,,,,0.4201,1,0,7,7,1,1,stimuli/blank.png,ich,l,KR01DS,2023-08-10_14h39.57.725,openIAT,2023.1.3,Win32,29.99130252,
,,,,,,l,1,0.3876,,,,,,,,,0.3876,1,0,8,8,11,1,stimuli/blank.png,ich,l,KR01DS,2023-08-10_14h39.57.725,openIAT,2023.1.3,Win32,29.99130252,
,,,,,,a,1,0.5321,,,,,,,,,0.5321,1,0,9,9,4,1,stimuli/blank.png,jene,a,KR01DS,2023-08-10_14h39.57.725,openIAT,2023.1.3,Win32,29.99130252,
,,,,,,l,1,0.5676,,,,,,,,,0.5676,1,0,10,10,19,1,stimuli/blank.png,selbst,l,KR01DS,2023-08-10_14h39.57.725,openIAT,2023.1.3,Win32,29.99130252,
,,,,,,a,1,0.652,,,,,,,,,0.652,1,0,11,11,2,1,stimuli/blank.png,ihr,a,KR01DS,2023-08-10_14h39.57.725,openIAT,2023.1.3,Win32,29.99130252,
,,,,,,l,1,0.5154,,,,,,,,,0.5154,1,0,12,12,3,1,stimuli/blank.png,mir,l,KR01DS,2023-08-10_14h39.57.725,openIAT,2023.1.3,Win32,29.99130252,
,,,,,,a,1,0.4824,,,,,,,,,0.4824,1,0,13,13,6,1,stimuli/blank.png,euch,a,KR01DS,2023-08-10_14h39.57.725,openIAT,2023.1.3,Win32,29.99130252,
,,,,,,l,1,0.5656,,,,,,,,,0.5656,1,0,14,14,7,1,stimuli/blank.png,eigene,l,KR01DS,2023-08-10_14h39.57.725,openIAT,2023.1.3,Win32,29.99130252,
,,,,,,a,1,0.4339,,,,,,,,,0.4339,1,0,15,15,10,1,stimuli/blank.png,andere,a,KR01DS,2023-08-10_14h39.57.725,openIAT,2023.1.3,Win32,29.99130252,
,,,,,,l,1,0.4494,,,,,,,,,0.4494,1,0,16,16,5,1,stimuli/blank.png,meine,l,KR01DS,2023-08-10_14h39.57.725,openIAT,2023.1.3,Win32,29.99130252,
,,,,,,l,1,0.6006,,,,,,,,,0.6006,1,0,17,17,17,1,stimuli/blank.png,eigene,l,KR01DS,2023-08-10_14h39.57.725,openIAT,2023.1.3,Win32,29.99130252,
,,,,,,a,1,0.6661,,,,,,,,,0.6661,1,0,18,18,18,1,stimuli/blank.png,eure,a,KR01DS,2023-08-10_14h39.57.725,openIAT,2023.1.3,Win32,29.99130252,
,,,,,,l,1,0.4297,,,,,,,,,0.4297,1,0,19,19,13,1,stimuli/blank.png,mir,l,KR01DS,2023-08-10_14h39.57.725,openIAT,2023.1.3,Win32,29.99130252,
,,,,,,a,1,0.7355,,,,,,,,,0.7355,1,0,0,0,18,1,stimuli/blank.png,human,a,KR01DS,2023-08-10_14h39.57.725,openIAT,2023.1.3,Win32,29.99130252,
,,,,,,l,1,0.6221,,,,,,,,,0.6221,1,0,1,1,9,1,stimuli/blank.png,selbst,l,KR01DS,2023-08-10_14h39.57.725,openIAT,2023.1.3,Win32,29.99130252,
,,,,,,l,1,0.9828,,,,,,,,,0.9828,1,0,2,2,17,1,stimuli/blank.png,eitel,l,KR01DS,2023-08-10_14h39.57.725,openIAT,2023.1.3,Win32,29.99130252,
,,,,,,a,1,0.7415,,,,,,,,,0.7415,1,0,3,3,16,1,stimuli/blank.png,begabt,a,KR01DS,2023-08-10_14h39.57.725,openIAT,2023.1.3,Win32,29.99130252,
,,,,,,a,0,0.7477,,,,,,,,,0.7477,0,0,4,4,11,1,stimuli/blank.png,brutal,l,KR01DS,2023-08-10_14h39.57.725,openIAT,2023.1.3,Win32,29.99130252,
,,,,,,l,1,0.9142,,,,,,,,,0.9142,1,0,5,5,19,1,stimuli/blank.png,lustlos,l,KR01DS,2023-08-10_14h39.57.725,openIAT,2023.1.3,Win32,29.99130252,
,,,,,,a,1,0.5685,,,,,,,,,0.5685,1,0,6,6,12,1,stimuli/blank.png,fröhlich,a,KR01DS,2023-08-10_14h39.57.725,openIAT,2023.1.3,Win32,29.99130252,
,,,,,,l,1,0.5321,,,,,,,,,0.5321,1,0,7,7,3,1,stimuli/blank.png,mir,l,KR01DS,2023-08-10_14h39.57.725,openIAT,2023.1.3,Win32,29.99130252,
,,,,,,l,1,0.4492,,,,,,,,,0.4492,1,0,8,8,5,1,stimuli/blank.png,meine,l,KR01DS,2023-08-10_14h39.57.725,openIAT,2023.1.3,Win32,29.99130252,
,,,,,,a,1,0.5223,,,,,,,,,0.5223,1,0,9,9,2,1,stimuli/blank.png,ihr,a,KR01DS,2023-08-10_14h39.57.725,openIAT,2023.1.3,Win32,29.99130252,
,,,,,,l,1,0.5473,,,,,,,,,0.5473,1,0,10,10,15,1,stimuli/blank.png,träge,l,KR01DS,2023-08-10_14h39.57.725,openIAT,2023.1.3,Win32,29.99130252,
,,,,,,l,1,0.4945,,,,,,,,,0.4945,1,0,11,11,1,1,stimuli/blank.png,ich,l,KR01DS,2023-08-10_14h39.57.725,openIAT,2023.1.3,Win32,29.99130252,
,,,,,,a,1,0.7012,,,,,,,,,0.7012,1,0,12,12,6,1,stimuli/blank.png,euch,a,KR01DS,2023-08-10_14h39.57.725,openIAT,2023.1.3,Win32,29.99130252,
,,,,,,a,1,0.6129,,,,,,,,,0.6129,1,0,13,13,0,1,stimuli/blank.png,andere,a,KR01DS,2023-08-10_14h39.57.725,openIAT,2023.1.3,Win32,29.99130252,
,,,,,,a,1,0.4943,,,,,,,,,0.4943,1,0,14,14,8,1,stimuli/blank.png,eure,a,KR01DS,2023-08-10_14h39.57.725,openIAT,2023.1.3,Win32,29.99130252,
,,,,,,a,0,0.6439,,,,,,,,,0.6439,0,0,15,15,13,1,stimuli/blank.png,verlogen,l,KR01DS,2023-08-10_14h39.57.725,openIAT,2023.1.3,Win32,29.99130252,
,,,,,,a,1,1.0663,,,,,,,,,1.0663,1,0,16,16,10,1,stimuli/blank.png,aktiv,a,KR01DS,2023-08-10_14h39.57.725,openIAT,2023.1.3,Win32,29.99130252,
,,,,,,l,1,0.6124,,,,,,,,,0.6124,1,0,17,17,7,1,stimuli/blank.png,eigene,l,KR01DS,2023-08-10_14h39.57.725,openIAT,2023.1.3,Win32,29.99130252,
,,,,,,a,1,0.6868,,,,,,,,,0.6868,1,0,18,18,14,1,stimuli/blank.png,gerecht,a,KR01DS,2023-08-10_14h39.57.725,openIAT,2023.1.3,Win32,29.99130252,
,,,,,,a,1,0.7509,,,,,,,,,0.7509,1,0,19,19,4,1,stimuli/blank.png,jene,a,KR01DS,2023-08-10_14h39.57.725,openIAT,2023.1.3,Win32,29.99130252,
,,,,,,a,1,1.1212,,,,,,,,,1.1212,1,0,0,0,24,1,stimuli/blank.png,jene,a,KR01DS,2023-08-10_14h39.57.725,openIAT,2023.1.3,Win32,29.99130252,
,,,,,,a,1,0.7612,,,,,,,,,0.7612,1,0,1,1,26,1,stimuli/blank.png,euch,a,KR01DS,2023-08-10_14h39.57.725,openIAT,2023.1.3,Win32,29.99130252,
,,,,,,l,1,0.4762,,,,,,,,,0.4762,1,0,2,2,3,1,stimuli/blank.png,mir,l,KR01DS,2023-08-10_14h39.57.725,openIAT,2023.1.3,Win32,29.99130252,
,,,,,,l,1,0.412,,,,,,,,,0.412,1,0,3,3,21,1,stimuli/blank.png,ich,l,KR01DS,2023-08-10_14h39.57.725,openIAT,2023.1.3,Win32,29.99130252,
,,,,,,l,1,0.8137,,,,,,,,,0.8137,1,0,4,4,27,1,stimuli/blank.png,eigene,l,KR01DS,2023-08-10_14h39.57.725,openIAT,2023.1.3,Win32,29.99130252,
,,,,,,a,1,0.6732,,,,,,,,,0.6732,1,0,5,5,2,1,stimuli/blank.png,ihr,a,KR01DS,2023-08-10_14h39.57.725,openIAT,2023.1.3,Win32,29.99130252,
,,,,,,l,1,0.7968,,,,,,,,,0.7968,1,0,6,6,35,1,stimuli/blank.png,träge,l,KR01DS,2023-08-10_14h39.57.725,openIAT,2023.1.3,Win32,29.99130252,
,,,,,,l,1,0.4859,,,,,,,,,0.4859,1,0,7,7,33,1,stimuli/blank.png,verlogen,l,KR01DS,2023-08-10_14h39.57.725,openIAT,2023.1.3,Win32,29.99130252,
,,,,,,l,1,0.5605,,,,,,,,,0.5605,1,0,8,8,23,1,stimuli/blank.png,mir,l,KR01DS,2023-08-10_14h39.57.725,openIAT,2023.1.3,Win32,29.99130252,
,,,,,,a,1,0.7433,,,,,,,,,0.7433,1,0,9,9,34,1,stimuli/blank.png,gerecht,a,KR01DS,2023-08-10_14h39.57.725,openIAT,2023.1.3,Win32,29.99130252,
,,,,,,l,0,0.5194,,,,,,,,,0.5194,0,0,10,10,38,1,stimuli/blank.png,human,a,KR01DS,2023-08-10_14h39.57.725,openIAT,2023.1.3,Win32,29.99130252,
,,,,,,l,1,1.138,,,,,,,,,1.138,1,0,11,11,19,1,stimuli/blank.png,lustlos,l,KR01DS,2023-08-10_14h39.57.725,openIAT,2023.1.3,Win32,29.99130252,
,,,,,,l,1,0.6731,,,,,,,,,0.6731,1,0,12,12,17,1,stimuli/blank.png,eitel,l,KR01DS,2023-08-10_14h39.57.725,openIAT,2023.1.3,Win32,29.99130252,
,,,,,,a,1,0.713,,,,,,,,,0.713,1,0,13,13,20,1,stimuli/blank.png,andere,a,KR01DS,2023-08-10_14h39.57.725,openIAT,2023.1.3,Win32,29.99130252,
,,,,,,a,1,0.7078,,,,,,,,,0.7078,1,0,14,14,28,1,stimuli/blank.png,eure,a,KR01DS,2023-08-10_14h39.57.725,openIAT,2023.1.3,Win32,29.99130252,
,,,,,,l,1,0.5844,,,,,,,,,0.5844,1,0,15,15,5,1,stimuli/blank.png,meine,l,KR01DS,2023-08-10_14h39.57.725,openIAT,2023.1.3,Win32,29.99130252,
,,,,,,a,1,0.5815,,,,,,,,,0.5815,1,0,16,16,4,1,stimuli/blank.png,jene,a,KR01DS,2023-08-10_14h39.57.725,openIAT,2023.1.3,Win32,29.99130252,
,,,,,,a,0,0.5535,,,,,,,,,0.5535,0,0,17,17,7,1,stimuli/blank.png,eigene,l,KR01DS,2023-08-10_14h39.57.725,openIAT,2023.1.3,Win32,29.99130252,
,,,,,,a,1,0.962,,,,,,,,,0.962,1,0,18,18,12,1,stimuli/blank.png,fröhlich,a,KR01DS,2023-08-10_14h39.57.725,openIAT,2023.1.3,Win32,29.99130252,
,,,,,,l,1,0.5965,,,,,,,,,0.5965,1,0,19,19,15,1,stimuli/blank.png,träge,l,KR01DS,2023-08-10_14h39.57.725,openIAT,2023.1.3,Win32,29.99130252,
,,,,,,a,1,0.6701,,,,,,,,,0.6701,1,0,20,20,14,1,stimuli/blank.png,gerecht,a,KR01DS,2023-08-10_14h39.57.725,openIAT,2023.1.3,Win32,29.99130252,
,,,,,,a,1,0.7397,,,,,,,,,0.7397,1,0,21,21,36,1,stimuli/blank.png,begabt,a,KR01DS,2023-08-10_14h39.57.725,openIAT,2023.1.3,Win32,29.99130252,
,,,,,,l,1,0.519,,,,,,,,,0.519,1,0,22,22,9,1,stimuli/blank.png,selbst,l,KR01DS,2023-08-10_14h39.57.725,openIAT,2023.1.3,Win32,29.99130252,
,,,,,,l,1,0.7217,,,,,,,,,0.7217,1,0,23,23,31,1,stimuli/blank.png,brutal,l,KR01DS,2023-08-10_14h39.57.725,openIAT,2023.1.3,Win32,29.99130252,
,,,,,,a,1,0.5108,,,,,,,,,0.5108,1,0,24,24,30,1,stimuli/blank.png,aktiv,a,KR01DS,2023-08-10_14h39.57.725,openIAT,2023.1.3,Win32,29.99130252,
,,,,,,l,1,0.7724,,,,,,,,,0.7724,1,0,25,25,11,1,stimuli/blank.png,brutal,l,KR01DS,2023-08-10_14h39.57.725,openIAT,2023.1.3,Win32,29.99130252,
,,,,,,l,1,0.5503,,,,,,,,,0.5503,1,0,26,26,1,1,stimuli/blank.png,ich,l,KR01DS,2023-08-10_14h39.57.725,openIAT,2023.1.3,Win32,29.99130252,
,,,,,,l,1,0.9574,,,,,,,,,0.9574,1,0,27,27,39,1,stimuli/blank.png,lustlos,l,KR01DS,2023-08-10_14h39.57.725,openIAT,2023.1.3,Win32,29.99130252,
,,,,,,l,1,0.5851,,,,,,,,,0.5851,1,0,28,28,13,1,stimuli/blank.png,verlogen,l,KR01DS,2023-08-10_14h39.57.725,openIAT,2023.1.3,Win32,29.99130252,
,,,,,,l,1,0.6373,,,,,,,,,0.6373,1,0,29,29,37,1,stimuli/blank.png,eitel,l,KR01DS,2023-08-10_14h39.57.725,openIAT,2023.1.3,Win32,29.99130252,
,,,,,,a,1,0.5565,,,,,,,,,0.5565,1,0,30,30,8,1,stimuli/blank.png,eure,a,KR01DS,2023-08-10_14h39.57.725,openIAT,2023.1.3,Win32,29.99130252,
,,,,,,a,1,0.6848,,,,,,,,,0.6848,1,0,31,31,10,1,stimuli/blank.png,aktiv,a,KR01DS,2023-08-10_14h39.57.725,openIAT,2023.1.3,Win32,29.99130252,
,,,,,,l,1,0.5961,,,,,,,,,0.5961,1,0,32,32,29,1,stimuli/blank.png,selbst,l,KR01DS,2023-08-10_14h39.57.725,openIAT,2023.1.3,Win32,29.99130252,
,,,,,,a,1,0.8848,,,,,,,,,0.8848,1,0,33,33,22,1,stimuli/blank.png,ihr,a,KR01DS,2023-08-10_14h39.57.725,openIAT,2023.1.3,Win32,29.99130252,
,,,,,,a,1,0.5469,,,,,,,,,0.5469,1,0,34,34,0,1,stimuli/blank.png,andere,a,KR01DS,2023-08-10_14h39.57.725,openIAT,2023.1.3,Win32,29.99130252,
,,,,,,l,0,0.6505,,,,,,,,,0.6505,0,0,35,35,32,1,stimuli/blank.png,fröhlich,a,KR01DS,2023-08-10_14h39.57.725,openIAT,2023.1.3,Win32,29.99130252,
,,,,,,a,1,0.9445,,,,,,,,,0.9445,1,0,36,36,18,1,stimuli/blank.png,human,a,KR01DS,2023-08-10_14h39.57.725,openIAT,2023.1.3,Win32,29.99130252,
,,,,,,a,1,0.6216,,,,,,,,,0.6216,1,0,37,37,16,1,stimuli/blank.png,begabt,a,KR01DS,2023-08-10_14h39.57.725,openIAT,2023.1.3,Win32,29.99130252,
,,,,,,a,1,0.6319,,,,,,,,,0.6319,1,0,38,38,6,1,stimuli/blank.png,euch,a,KR01DS,2023-08-10_14h39.57.725,openIAT,2023.1.3,Win32,29.99130252,
,,,,,,l,1,0.7148,,,,,,,,,0.7148,1,0,39,39,25,1,stimuli/blank.png,meine,l,KR01DS,2023-08-10_14h39.57.725,openIAT,2023.1.3,Win32,29.99130252,
,,,,,,,,,,,,,,,,,,,,,,,,,,,KR01DS,2023-08-10_14h39.57.725,openIAT,2023.1.3,Win32,29.99130252,
