instr_done_touch.x,instr_done_touch.y,instr_done_touch.leftButton,instr_done_touch.midButton,instr_done_touch.rightButton,instr_done_touch.clicked_name,key_resp.keys,key_resp.corr,key_resp.rt,key_resp.duration,touch_resp.x,touch_resp.y,touch_resp.leftButton,touch_resp.midButton,touch_resp.rightButton,touch_resp.time,touch_resp.clicked_name,rt,corr,trials.thisRepN,trials.thisTrialN,trials.thisN,trials.thisIndex,trials.ran,stimImage,stimWord,CorrAns,participant,date,expName,psychopyVersion,OS,frameRate,return_tic
0.033854167,-0.401041667,1,0,0,instr_done_button,l,1,0.8927,,,,,,,,,0.8927,1,0,0,0,13,1,stimuli/blank.png,verlogen,l,KR09AE,2023-08-10_20h32.45.828,openIAT,2023.1.3,Win32,60.13590715,
,,,,,,a,1,1.4712,,,,,,,,,1.4712,1,0,1,1,18,1,stimuli/blank.png,human,a,KR09AE,2023-08-10_20h32.45.828,openIAT,2023.1.3,Win32,60.13590715,
,,,,,,a,1,0.6505,,,,,,,,,0.6505,1,0,2,2,8,1,stimuli/blank.png,human,a,KR09AE,2023-08-10_20h32.45.828,openIAT,2023.1.3,Win32,60.13590715,
,,,,,,a,1,0.5071,,,,,,,,,0.5071,1,0,3,3,0,1,stimuli/blank.png,aktiv,a,KR09AE,2023-08-10_20h32.45.828,openIAT,2023.1.3,Win32,60.13590715,
,,,,,,a,1,0.5039,,,,,,,,,0.5039,1,0,4,4,16,1,stimuli/blank.png,begabt,a,KR09AE,2023-08-10_20h32.45.828,openIAT,2023.1.3,Win32,60.13590715,
,,,,,,l,1,0.508,,,,,,,,,0.508,1,0,5,5,17,1,stimuli/blank.png,eitel,l,KR09AE,2023-08-10_20h32.45.828,openIAT,2023.1.3,Win32,60.13590715,
,,,,,,a,1,0.5062,,,,,,,,,0.5062,1,0,6,6,4,1,stimuli/blank.png,gerecht,a,KR09AE,2023-08-10_20h32.45.828,openIAT,2023.1.3,Win32,60.13590715,
,,,,,,l,0,0.3813,,,,,,,,,0.3813,0,0,7,7,12,1,stimuli/blank.png,fröhlich,a,KR09AE,2023-08-10_20h32.45.828,openIAT,2023.1.3,Win32,60.13590715,
,,,,,,l,1,0.8486,,,,,,,,,0.8486,1,0,8,8,19,1,stimuli/blank.png,lustlos,l,KR09AE,2023-08-10_20h32.45.828,openIAT,2023.1.3,Win32,60.13590715,
,,,,,,l,1,0.5546,,,,,,,,,0.5546,1,0,9,9,3,1,stimuli/blank.png,verlogen,l,KR09AE,2023-08-10_20h32.45.828,openIAT,2023.1.3,Win32,60.13590715,
,,,,,,a,1,0.5819,,,,,,,,,0.5819,1,0,10,10,6,1,stimuli/blank.png,begabt,a,KR09AE,2023-08-10_20h32.45.828,openIAT,2023.1.3,Win32,60.13590715,
,,,,,,l,1,0.7155,,,,,,,,,0.7155,1,0,11,11,1,1,stimuli/blank.png,brutal,l,KR09AE,2023-08-10_20h32.45.828,openIAT,2023.1.3,Win32,60.13590715,
,,,,,,l,1,0.5701,,,,,,,,,0.5701,1,0,12,12,9,1,stimuli/blank.png,lustlos,l,KR09AE,2023-08-10_20h32.45.828,openIAT,2023.1.3,Win32,60.13590715,
,,,,,,a,1,0.5655,,,,,,,,,0.5655,1,0,13,13,2,1,stimuli/blank.png,fröhlich,a,KR09AE,2023-08-10_20h32.45.828,openIAT,2023.1.3,Win32,60.13590715,
,,,,,,l,1,0.529,,,,,,,,,0.529,1,0,14,14,7,1,stimuli/blank.png,eitel,l,KR09AE,2023-08-10_20h32.45.828,openIAT,2023.1.3,Win32,60.13590715,
,,,,,,l,1,0.9116,,,,,,,,,0.9116,1,0,15,15,5,1,stimuli/blank.png,träge,l,KR09AE,2023-08-10_20h32.45.828,openIAT,2023.1.3,Win32,60.13590715,
,,,,,,a,1,0.5146,,,,,,,,,0.5146,1,0,16,16,14,1,stimuli/blank.png,gerecht,a,KR09AE,2023-08-10_20h32.45.828,openIAT,2023.1.3,Win32,60.13590715,
,,,,,,a,1,0.568,,,,,,,,,0.568,1,0,17,17,10,1,stimuli/blank.png,aktiv,a,KR09AE,2023-08-10_20h32.45.828,openIAT,2023.1.3,Win32,60.13590715,
,,,,,,l,1,0.8009,,,,,,,,,0.8009,1,0,18,18,11,1,stimuli/blank.png,brutal,l,KR09AE,2023-08-10_20h32.45.828,openIAT,2023.1.3,Win32,60.13590715,
,,,,,,l,1,0.8463,,,,,,,,,0.8463,1,0,19,19,15,1,stimuli/blank.png,träge,l,KR09AE,2023-08-10_20h32.45.828,openIAT,2023.1.3,Win32,60.13590715,
,,,,,,a,1,1.1521,,,,,,,,,1.1521,1,0,0,0,7,1,stimuli/blank.png,eigene,a,KR09AE,2023-08-10_20h32.45.828,openIAT,2023.1.3,Win32,60.13590715,
,,,,,,l,1,0.5285,,,,,,,,,0.5285,1,0,1,1,18,1,stimuli/blank.png,eure,l,KR09AE,2023-08-10_20h32.45.828,openIAT,2023.1.3,Win32,60.13590715,
,,,,,,a,1,0.5196,,,,,,,,,0.5196,1,0,2,2,17,1,stimuli/blank.png,eigene,a,KR09AE,2023-08-10_20h32.45.828,openIAT,2023.1.3,Win32,60.13590715,
,,,,,,a,1,0.5196,,,,,,,,,0.5196,1,0,3,3,13,1,stimuli/blank.png,mir,a,KR09AE,2023-08-10_20h32.45.828,openIAT,2023.1.3,Win32,60.13590715,
,,,,,,a,0,0.497,,,,,,,,,0.497,0,0,4,4,0,1,stimuli/blank.png,andere,l,KR09AE,2023-08-10_20h32.45.828,openIAT,2023.1.3,Win32,60.13590715,
,,,,,,a,1,0.8308,,,,,,,,,0.8308,1,0,5,5,9,1,stimuli/blank.png,selbst,a,KR09AE,2023-08-10_20h32.45.828,openIAT,2023.1.3,Win32,60.13590715,
,,,,,,a,1,0.4316,,,,,,,,,0.4316,1,0,6,6,11,1,stimuli/blank.png,ich,a,KR09AE,2023-08-10_20h32.45.828,openIAT,2023.1.3,Win32,60.13590715,
,,,,,,l,1,0.4771,,,,,,,,,0.4771,1,0,7,7,4,1,stimuli/blank.png,jene,l,KR09AE,2023-08-10_20h32.45.828,openIAT,2023.1.3,Win32,60.13590715,
,,,,,,a,1,0.5308,,,,,,,,,0.5308,1,0,8,8,5,1,stimuli/blank.png,meine,a,KR09AE,2023-08-10_20h32.45.828,openIAT,2023.1.3,Win32,60.13590715,
,,,,,,a,1,0.4651,,,,,,,,,0.4651,1,0,9,9,1,1,stimuli/blank.png,ich,a,KR09AE,2023-08-10_20h32.45.828,openIAT,2023.1.3,Win32,60.13590715,
,,,,,,l,1,0.5638,,,,,,,,,0.5638,1,0,10,10,10,1,stimuli/blank.png,andere,l,KR09AE,2023-08-10_20h32.45.828,openIAT,2023.1.3,Win32,60.13590715,
,,,,,,l,1,0.6467,,,,,,,,,0.6467,1,0,11,11,8,1,stimuli/blank.png,eure,l,KR09AE,2023-08-10_20h32.45.828,openIAT,2023.1.3,Win32,60.13590715,
,,,,,,l,1,0.5149,,,,,,,,,0.5149,1,0,12,12,6,1,stimuli/blank.png,euch,l,KR09AE,2023-08-10_20h32.45.828,openIAT,2023.1.3,Win32,60.13590715,
,,,,,,a,1,0.5471,,,,,,,,,0.5471,1,0,13,13,19,1,stimuli/blank.png,selbst,a,KR09AE,2023-08-10_20h32.45.828,openIAT,2023.1.3,Win32,60.13590715,
,,,,,,l,1,0.5148,,,,,,,,,0.5148,1,0,14,14,2,1,stimuli/blank.png,ihr,l,KR09AE,2023-08-10_20h32.45.828,openIAT,2023.1.3,Win32,60.13590715,
,,,,,,l,1,0.5531,,,,,,,,,0.5531,1,0,15,15,16,1,stimuli/blank.png,euch,l,KR09AE,2023-08-10_20h32.45.828,openIAT,2023.1.3,Win32,60.13590715,
,,,,,,l,1,0.5336,,,,,,,,,0.5336,1,0,16,16,14,1,stimuli/blank.png,jene,l,KR09AE,2023-08-10_20h32.45.828,openIAT,2023.1.3,Win32,60.13590715,
,,,,,,a,1,0.5549,,,,,,,,,0.5549,1,0,17,17,15,1,stimuli/blank.png,meine,a,KR09AE,2023-08-10_20h32.45.828,openIAT,2023.1.3,Win32,60.13590715,
,,,,,,a,0,0.4155,,,,,,,,,0.4155,0,0,18,18,12,1,stimuli/blank.png,ihr,l,KR09AE,2023-08-10_20h32.45.828,openIAT,2023.1.3,Win32,60.13590715,
,,,,,,a,1,0.7499,,,,,,,,,0.7499,1,0,19,19,3,1,stimuli/blank.png,mir,a,KR09AE,2023-08-10_20h32.45.828,openIAT,2023.1.3,Win32,60.13590715,
,,,,,,l,1,0.7682,,,,,,,,,0.7682,1,0,0,0,13,1,stimuli/blank.png,verlogen,l,KR09AE,2023-08-10_20h32.45.828,openIAT,2023.1.3,Win32,60.13590715,
,,,,,,l,1,0.4642,,,,,,,,,0.4642,1,0,1,1,11,1,stimuli/blank.png,brutal,l,KR09AE,2023-08-10_20h32.45.828,openIAT,2023.1.3,Win32,60.13590715,
,,,,,,a,0,0.4807,,,,,,,,,0.4807,0,0,2,2,2,1,stimuli/blank.png,ihr,l,KR09AE,2023-08-10_20h32.45.828,openIAT,2023.1.3,Win32,60.13590715,
,,,,,,a,1,0.732,,,,,,,,,0.732,1,0,3,3,1,1,stimuli/blank.png,ich,a,KR09AE,2023-08-10_20h32.45.828,openIAT,2023.1.3,Win32,60.13590715,
,,,,,,a,1,0.5171,,,,,,,,,0.5171,1,0,4,4,3,1,stimuli/blank.png,mir,a,KR09AE,2023-08-10_20h32.45.828,openIAT,2023.1.3,Win32,60.13590715,
,,,,,,a,1,0.8473,,,,,,,,,0.8473,1,0,5,5,14,1,stimuli/blank.png,gerecht,a,KR09AE,2023-08-10_20h32.45.828,openIAT,2023.1.3,Win32,60.13590715,
,,,,,,l,1,0.6383,,,,,,,,,0.6383,1,0,6,6,6,1,stimuli/blank.png,euch,l,KR09AE,2023-08-10_20h32.45.828,openIAT,2023.1.3,Win32,60.13590715,
,,,,,,a,1,0.5982,,,,,,,,,0.5982,1,0,7,7,9,1,stimuli/blank.png,selbst,a,KR09AE,2023-08-10_20h32.45.828,openIAT,2023.1.3,Win32,60.13590715,
,,,,,,l,1,0.6636,,,,,,,,,0.6636,1,0,8,8,8,1,stimuli/blank.png,eure,l,KR09AE,2023-08-10_20h32.45.828,openIAT,2023.1.3,Win32,60.13590715,
,,,,,,l,1,0.4851,,,,,,,,,0.4851,1,0,9,9,17,1,stimuli/blank.png,eitel,l,KR09AE,2023-08-10_20h32.45.828,openIAT,2023.1.3,Win32,60.13590715,
,,,,,,a,1,0.5848,,,,,,,,,0.5848,1,0,10,10,16,1,stimuli/blank.png,begabt,a,KR09AE,2023-08-10_20h32.45.828,openIAT,2023.1.3,Win32,60.13590715,
,,,,,,l,1,0.7143,,,,,,,,,0.7143,1,0,11,11,0,1,stimuli/blank.png,andere,l,KR09AE,2023-08-10_20h32.45.828,openIAT,2023.1.3,Win32,60.13590715,
,,,,,,a,1,0.6487,,,,,,,,,0.6487,1,0,12,12,12,1,stimuli/blank.png,fröhlich,a,KR09AE,2023-08-10_20h32.45.828,openIAT,2023.1.3,Win32,60.13590715,
,,,,,,l,1,0.5643,,,,,,,,,0.5643,1,0,13,13,15,1,stimuli/blank.png,träge,l,KR09AE,2023-08-10_20h32.45.828,openIAT,2023.1.3,Win32,60.13590715,
,,,,,,a,1,1.0171,,,,,,,,,1.0171,1,0,14,14,10,1,stimuli/blank.png,aktiv,a,KR09AE,2023-08-10_20h32.45.828,openIAT,2023.1.3,Win32,60.13590715,
,,,,,,l,1,0.5452,,,,,,,,,0.5452,1,0,15,15,19,1,stimuli/blank.png,lustlos,l,KR09AE,2023-08-10_20h32.45.828,openIAT,2023.1.3,Win32,60.13590715,
,,,,,,l,1,0.5516,,,,,,,,,0.5516,1,0,16,16,4,1,stimuli/blank.png,jene,l,KR09AE,2023-08-10_20h32.45.828,openIAT,2023.1.3,Win32,60.13590715,
,,,,,,a,1,1.1323,,,,,,,,,1.1323,1,0,17,17,7,1,stimuli/blank.png,eigene,a,KR09AE,2023-08-10_20h32.45.828,openIAT,2023.1.3,Win32,60.13590715,
,,,,,,a,1,0.7984,,,,,,,,,0.7984,1,0,18,18,18,1,stimuli/blank.png,human,a,KR09AE,2023-08-10_20h32.45.828,openIAT,2023.1.3,Win32,60.13590715,
,,,,,,a,1,0.6024,,,,,,,,,0.6024,1,0,19,19,5,1,stimuli/blank.png,meine,a,KR09AE,2023-08-10_20h32.45.828,openIAT,2023.1.3,Win32,60.13590715,
,,,,,,l,1,0.6323,,,,,,,,,0.6323,1,0,0,0,39,1,stimuli/blank.png,lustlos,l,KR09AE,2023-08-10_20h32.45.828,openIAT,2023.1.3,Win32,60.13590715,
,,,,,,l,1,0.5162,,,,,,,,,0.5162,1,0,1,1,22,1,stimuli/blank.png,ihr,l,KR09AE,2023-08-10_20h32.45.828,openIAT,2023.1.3,Win32,60.13590715,
,,,,,,a,1,0.5679,,,,,,,,,0.5679,1,0,2,2,3,1,stimuli/blank.png,mir,a,KR09AE,2023-08-10_20h32.45.828,openIAT,2023.1.3,Win32,60.13590715,
,,,,,,l,1,0.7105,,,,,,,,,0.7105,1,0,3,3,35,1,stimuli/blank.png,träge,l,KR09AE,2023-08-10_20h32.45.828,openIAT,2023.1.3,Win32,60.13590715,
,,,,,,a,1,0.868,,,,,,,,,0.868,1,0,4,4,27,1,stimuli/blank.png,eigene,a,KR09AE,2023-08-10_20h32.45.828,openIAT,2023.1.3,Win32,60.13590715,
,,,,,,l,1,0.7409,,,,,,,,,0.7409,1,0,5,5,20,1,stimuli/blank.png,andere,l,KR09AE,2023-08-10_20h32.45.828,openIAT,2023.1.3,Win32,60.13590715,
,,,,,,l,1,0.5679,,,,,,,,,0.5679,1,0,6,6,31,1,stimuli/blank.png,brutal,l,KR09AE,2023-08-10_20h32.45.828,openIAT,2023.1.3,Win32,60.13590715,
,,,,,,l,1,0.5513,,,,,,,,,0.5513,1,0,7,7,28,1,stimuli/blank.png,eure,l,KR09AE,2023-08-10_20h32.45.828,openIAT,2023.1.3,Win32,60.13590715,
,,,,,,a,1,0.5446,,,,,,,,,0.5446,1,0,8,8,23,1,stimuli/blank.png,mir,a,KR09AE,2023-08-10_20h32.45.828,openIAT,2023.1.3,Win32,60.13590715,
,,,,,,a,1,0.5846,,,,,,,,,0.5846,1,0,9,9,21,1,stimuli/blank.png,ich,a,KR09AE,2023-08-10_20h32.45.828,openIAT,2023.1.3,Win32,60.13590715,
,,,,,,l,1,0.4767,,,,,,,,,0.4767,1,0,10,10,13,1,stimuli/blank.png,verlogen,l,KR09AE,2023-08-10_20h32.45.828,openIAT,2023.1.3,Win32,60.13590715,
,,,,,,a,1,0.684,,,,,,,,,0.684,1,0,11,11,34,1,stimuli/blank.png,gerecht,a,KR09AE,2023-08-10_20h32.45.828,openIAT,2023.1.3,Win32,60.13590715,
,,,,,,a,1,0.6011,,,,,,,,,0.6011,1,0,12,12,18,1,stimuli/blank.png,human,a,KR09AE,2023-08-10_20h32.45.828,openIAT,2023.1.3,Win32,60.13590715,
,,,,,,l,1,0.5853,,,,,,,,,0.5853,1,0,13,13,17,1,stimuli/blank.png,eitel,l,KR09AE,2023-08-10_20h32.45.828,openIAT,2023.1.3,Win32,60.13590715,
,,,,,,a,1,0.4844,,,,,,,,,0.4844,1,0,14,14,25,1,stimuli/blank.png,meine,a,KR09AE,2023-08-10_20h32.45.828,openIAT,2023.1.3,Win32,60.13590715,
,,,,,,a,1,0.5846,,,,,,,,,0.5846,1,0,15,15,12,1,stimuli/blank.png,fröhlich,a,KR09AE,2023-08-10_20h32.45.828,openIAT,2023.1.3,Win32,60.13590715,
,,,,,,a,1,0.6025,,,,,,,,,0.6025,1,0,16,16,9,1,stimuli/blank.png,selbst,a,KR09AE,2023-08-10_20h32.45.828,openIAT,2023.1.3,Win32,60.13590715,
,,,,,,a,1,0.5318,,,,,,,,,0.5318,1,0,17,17,10,1,stimuli/blank.png,aktiv,a,KR09AE,2023-08-10_20h32.45.828,openIAT,2023.1.3,Win32,60.13590715,
,,,,,,l,1,0.5179,,,,,,,,,0.5179,1,0,18,18,19,1,stimuli/blank.png,lustlos,l,KR09AE,2023-08-10_20h32.45.828,openIAT,2023.1.3,Win32,60.13590715,
,,,,,,l,1,0.5846,,,,,,,,,0.5846,1,0,19,19,2,1,stimuli/blank.png,ihr,l,KR09AE,2023-08-10_20h32.45.828,openIAT,2023.1.3,Win32,60.13590715,
,,,,,,l,1,0.7244,,,,,,,,,0.7244,1,0,20,20,37,1,stimuli/blank.png,eitel,l,KR09AE,2023-08-10_20h32.45.828,openIAT,2023.1.3,Win32,60.13590715,
,,,,,,a,1,0.6843,,,,,,,,,0.6843,1,0,21,21,36,1,stimuli/blank.png,begabt,a,KR09AE,2023-08-10_20h32.45.828,openIAT,2023.1.3,Win32,60.13590715,
,,,,,,a,1,0.4679,,,,,,,,,0.4679,1,0,22,22,32,1,stimuli/blank.png,fröhlich,a,KR09AE,2023-08-10_20h32.45.828,openIAT,2023.1.3,Win32,60.13590715,
,,,,,,l,1,0.5011,,,,,,,,,0.5011,1,0,23,23,24,1,stimuli/blank.png,jene,l,KR09AE,2023-08-10_20h32.45.828,openIAT,2023.1.3,Win32,60.13590715,
,,,,,,a,1,0.5674,,,,,,,,,0.5674,1,0,24,24,29,1,stimuli/blank.png,selbst,a,KR09AE,2023-08-10_20h32.45.828,openIAT,2023.1.3,Win32,60.13590715,
,,,,,,a,1,0.6008,,,,,,,,,0.6008,1,0,25,25,16,1,stimuli/blank.png,begabt,a,KR09AE,2023-08-10_20h32.45.828,openIAT,2023.1.3,Win32,60.13590715,
,,,,,,l,1,0.5591,,,,,,,,,0.5591,1,0,26,26,15,1,stimuli/blank.png,träge,l,KR09AE,2023-08-10_20h32.45.828,openIAT,2023.1.3,Win32,60.13590715,
,,,,,,l,1,0.4678,,,,,,,,,0.4678,1,0,27,27,11,1,stimuli/blank.png,brutal,l,KR09AE,2023-08-10_20h32.45.828,openIAT,2023.1.3,Win32,60.13590715,
,,,,,,a,1,0.518,,,,,,,,,0.518,1,0,28,28,5,1,stimuli/blank.png,meine,a,KR09AE,2023-08-10_20h32.45.828,openIAT,2023.1.3,Win32,60.13590715,
,,,,,,l,1,0.5841,,,,,,,,,0.5841,1,0,29,29,8,1,stimuli/blank.png,eure,l,KR09AE,2023-08-10_20h32.45.828,openIAT,2023.1.3,Win32,60.13590715,
,,,,,,l,1,0.5678,,,,,,,,,0.5678,1,0,30,30,4,1,stimuli/blank.png,jene,l,KR09AE,2023-08-10_20h32.45.828,openIAT,2023.1.3,Win32,60.13590715,
,,,,,,a,1,0.5171,,,,,,,,,0.5171,1,0,31,31,1,1,stimuli/blank.png,ich,a,KR09AE,2023-08-10_20h32.45.828,openIAT,2023.1.3,Win32,60.13590715,
,,,,,,l,1,0.5178,,,,,,,,,0.5178,1,0,32,32,6,1,stimuli/blank.png,euch,l,KR09AE,2023-08-10_20h32.45.828,openIAT,2023.1.3,Win32,60.13590715,
,,,,,,l,1,1.101,,,,,,,,,1.101,1,0,33,33,26,1,stimuli/blank.png,euch,l,KR09AE,2023-08-10_20h32.45.828,openIAT,2023.1.3,Win32,60.13590715,
,,,,,,a,1,0.6092,,,,,,,,,0.6092,1,0,34,34,38,1,stimuli/blank.png,human,a,KR09AE,2023-08-10_20h32.45.828,openIAT,2023.1.3,Win32,60.13590715,
,,,,,,l,0,0.8009,,,,,,,,,0.8009,0,0,35,35,7,1,stimuli/blank.png,eigene,a,KR09AE,2023-08-10_20h32.45.828,openIAT,2023.1.3,Win32,60.13590715,
,,,,,,a,1,0.651,,,,,,,,,0.651,1,0,36,36,14,1,stimuli/blank.png,gerecht,a,KR09AE,2023-08-10_20h32.45.828,openIAT,2023.1.3,Win32,60.13590715,
,,,,,,a,1,0.5679,,,,,,,,,0.5679,1,0,37,37,30,1,stimuli/blank.png,aktiv,a,KR09AE,2023-08-10_20h32.45.828,openIAT,2023.1.3,Win32,60.13590715,
,,,,,,l,1,0.853,,,,,,,,,0.853,1,0,38,38,0,1,stimuli/blank.png,andere,l,KR09AE,2023-08-10_20h32.45.828,openIAT,2023.1.3,Win32,60.13590715,
,,,,,,l,1,0.5346,,,,,,,,,0.5346,1,0,39,39,33,1,stimuli/blank.png,verlogen,l,KR09AE,2023-08-10_20h32.45.828,openIAT,2023.1.3,Win32,60.13590715,
,,,,,,l,1,1.2232,,,,,,,,,1.2232,1,0,0,0,5,1,stimuli/blank.png,meine,l,KR09AE,2023-08-10_20h32.45.828,openIAT,2023.1.3,Win32,60.13590715,
,,,,,,a,1,0.4474,,,,,,,,,0.4474,1,0,1,1,8,1,stimuli/blank.png,eure,a,KR09AE,2023-08-10_20h32.45.828,openIAT,2023.1.3,Win32,60.13590715,
,,,,,,l,1,0.4352,,,,,,,,,0.4352,1,0,2,2,11,1,stimuli/blank.png,ich,l,KR09AE,2023-08-10_20h32.45.828,openIAT,2023.1.3,Win32,60.13590715,
,,,,,,a,1,0.5319,,,,,,,,,0.5319,1,0,3,3,14,1,stimuli/blank.png,jene,a,KR09AE,2023-08-10_20h32.45.828,openIAT,2023.1.3,Win32,60.13590715,
,,,,,,a,1,0.5035,,,,,,,,,0.5035,1,0,4,4,10,1,stimuli/blank.png,andere,a,KR09AE,2023-08-10_20h32.45.828,openIAT,2023.1.3,Win32,60.13590715,
,,,,,,l,1,0.4796,,,,,,,,,0.4796,1,0,5,5,9,1,stimuli/blank.png,selbst,l,KR09AE,2023-08-10_20h32.45.828,openIAT,2023.1.3,Win32,60.13590715,
,,,,,,l,0,0.4849,,,,,,,,,0.4849,0,0,6,6,2,1,stimuli/blank.png,ihr,a,KR09AE,2023-08-10_20h32.45.828,openIAT,2023.1.3,Win32,60.13590715,
,,,,,,l,1,0.7641,,,,,,,,,0.7641,1,0,7,7,13,1,stimuli/blank.png,mir,l,KR09AE,2023-08-10_20h32.45.828,openIAT,2023.1.3,Win32,60.13590715,
,,,,,,a,1,0.4478,,,,,,,,,0.4478,1,0,8,8,6,1,stimuli/blank.png,euch,a,KR09AE,2023-08-10_20h32.45.828,openIAT,2023.1.3,Win32,60.13590715,
,,,,,,l,0,0.6634,,,,,,,,,0.6634,0,0,9,9,0,1,stimuli/blank.png,andere,a,KR09AE,2023-08-10_20h32.45.828,openIAT,2023.1.3,Win32,60.13590715,
,,,,,,l,0,0.698,,,,,,,,,0.698,0,0,10,10,4,1,stimuli/blank.png,jene,a,KR09AE,2023-08-10_20h32.45.828,openIAT,2023.1.3,Win32,60.13590715,
,,,,,,a,1,0.6117,,,,,,,,,0.6117,1,0,11,11,16,1,stimuli/blank.png,euch,a,KR09AE,2023-08-10_20h32.45.828,openIAT,2023.1.3,Win32,60.13590715,
,,,,,,a,0,0.5303,,,,,,,,,0.5303,0,0,12,12,17,1,stimuli/blank.png,eigene,l,KR09AE,2023-08-10_20h32.45.828,openIAT,2023.1.3,Win32,60.13590715,
,,,,,,a,1,0.766,,,,,,,,,0.766,1,0,13,13,18,1,stimuli/blank.png,eure,a,KR09AE,2023-08-10_20h32.45.828,openIAT,2023.1.3,Win32,60.13590715,
,,,,,,l,1,0.6151,,,,,,,,,0.6151,1,0,14,14,15,1,stimuli/blank.png,meine,l,KR09AE,2023-08-10_20h32.45.828,openIAT,2023.1.3,Win32,60.13590715,
,,,,,,a,1,0.7522,,,,,,,,,0.7522,1,0,15,15,12,1,stimuli/blank.png,ihr,a,KR09AE,2023-08-10_20h32.45.828,openIAT,2023.1.3,Win32,60.13590715,
,,,,,,l,1,0.8331,,,,,,,,,0.8331,1,0,16,16,3,1,stimuli/blank.png,mir,l,KR09AE,2023-08-10_20h32.45.828,openIAT,2023.1.3,Win32,60.13590715,
,,,,,,l,1,0.954,,,,,,,,,0.954,1,0,17,17,19,1,stimuli/blank.png,selbst,l,KR09AE,2023-08-10_20h32.45.828,openIAT,2023.1.3,Win32,60.13590715,
,,,,,,l,1,0.7504,,,,,,,,,0.7504,1,0,18,18,7,1,stimuli/blank.png,eigene,l,KR09AE,2023-08-10_20h32.45.828,openIAT,2023.1.3,Win32,60.13590715,
,,,,,,l,1,0.4279,,,,,,,,,0.4279,1,0,19,19,1,1,stimuli/blank.png,ich,l,KR09AE,2023-08-10_20h32.45.828,openIAT,2023.1.3,Win32,60.13590715,
,,,,,,l,1,1.207,,,,,,,,,1.207,1,0,0,0,3,1,stimuli/blank.png,mir,l,KR09AE,2023-08-10_20h32.45.828,openIAT,2023.1.3,Win32,60.13590715,
,,,,,,l,1,0.7018,,,,,,,,,0.7018,1,0,1,1,11,1,stimuli/blank.png,brutal,l,KR09AE,2023-08-10_20h32.45.828,openIAT,2023.1.3,Win32,60.13590715,
,,,,,,a,1,0.5956,,,,,,,,,0.5956,1,0,2,2,14,1,stimuli/blank.png,gerecht,a,KR09AE,2023-08-10_20h32.45.828,openIAT,2023.1.3,Win32,60.13590715,
,,,,,,a,1,0.5865,,,,,,,,,0.5865,1,0,3,3,6,1,stimuli/blank.png,euch,a,KR09AE,2023-08-10_20h32.45.828,openIAT,2023.1.3,Win32,60.13590715,
,,,,,,a,1,0.5693,,,,,,,,,0.5693,1,0,4,4,2,1,stimuli/blank.png,ihr,a,KR09AE,2023-08-10_20h32.45.828,openIAT,2023.1.3,Win32,60.13590715,
,,,,,,a,1,0.5674,,,,,,,,,0.5674,1,0,5,5,10,1,stimuli/blank.png,aktiv,a,KR09AE,2023-08-10_20h32.45.828,openIAT,2023.1.3,Win32,60.13590715,
,,,,,,l,1,0.4974,,,,,,,,,0.4974,1,0,6,6,15,1,stimuli/blank.png,träge,l,KR09AE,2023-08-10_20h32.45.828,openIAT,2023.1.3,Win32,60.13590715,
,,,,,,l,1,0.4985,,,,,,,,,0.4985,1,0,7,7,13,1,stimuli/blank.png,verlogen,l,KR09AE,2023-08-10_20h32.45.828,openIAT,2023.1.3,Win32,60.13590715,
,,,,,,a,1,0.7788,,,,,,,,,0.7788,1,0,8,8,4,1,stimuli/blank.png,jene,a,KR09AE,2023-08-10_20h32.45.828,openIAT,2023.1.3,Win32,60.13590715,
,,,,,,a,1,0.6063,,,,,,,,,0.6063,1,0,9,9,0,1,stimuli/blank.png,andere,a,KR09AE,2023-08-10_20h32.45.828,openIAT,2023.1.3,Win32,60.13590715,
,,,,,,a,0,0.6172,,,,,,,,,0.6172,0,0,10,10,19,1,stimuli/blank.png,lustlos,l,KR09AE,2023-08-10_20h32.45.828,openIAT,2023.1.3,Win32,60.13590715,
,,,,,,l,1,1.1576,,,,,,,,,1.1576,1,0,11,11,17,1,stimuli/blank.png,eitel,l,KR09AE,2023-08-10_20h32.45.828,openIAT,2023.1.3,Win32,60.13590715,
,,,,,,a,0,0.6322,,,,,,,,,0.6322,0,0,12,12,5,1,stimuli/blank.png,meine,l,KR09AE,2023-08-10_20h32.45.828,openIAT,2023.1.3,Win32,60.13590715,
,,,,,,a,1,1.1487,,,,,,,,,1.1487,1,0,13,13,12,1,stimuli/blank.png,fröhlich,a,KR09AE,2023-08-10_20h32.45.828,openIAT,2023.1.3,Win32,60.13590715,
,,,,,,a,1,0.6155,,,,,,,,,0.6155,1,0,14,14,16,1,stimuli/blank.png,begabt,a,KR09AE,2023-08-10_20h32.45.828,openIAT,2023.1.3,Win32,60.13590715,
,,,,,,l,1,0.8021,,,,,,,,,0.8021,1,0,15,15,9,1,stimuli/blank.png,selbst,l,KR09AE,2023-08-10_20h32.45.828,openIAT,2023.1.3,Win32,60.13590715,
,,,,,,a,1,1.5284,,,,,,,,,1.5284,1,0,16,16,8,1,stimuli/blank.png,eure,a,KR09AE,2023-08-10_20h32.45.828,openIAT,2023.1.3,Win32,60.13590715,
,,,,,,l,1,0.7131,,,,,,,,,0.7131,1,0,17,17,7,1,stimuli/blank.png,eigene,l,KR09AE,2023-08-10_20h32.45.828,openIAT,2023.1.3,Win32,60.13590715,
,,,,,,l,1,0.5134,,,,,,,,,0.5134,1,0,18,18,1,1,stimuli/blank.png,ich,l,KR09AE,2023-08-10_20h32.45.828,openIAT,2023.1.3,Win32,60.13590715,
,,,,,,a,1,0.6151,,,,,,,,,0.6151,1,0,19,19,18,1,stimuli/blank.png,human,a,KR09AE,2023-08-10_20h32.45.828,openIAT,2023.1.3,Win32,60.13590715,
,,,,,,a,1,1.3134,,,,,,,,,1.3134,1,0,0,0,26,1,stimuli/blank.png,euch,a,KR09AE,2023-08-10_20h32.45.828,openIAT,2023.1.3,Win32,60.13590715,
,,,,,,a,1,0.5191,,,,,,,,,0.5191,1,0,1,1,8,1,stimuli/blank.png,eure,a,KR09AE,2023-08-10_20h32.45.828,openIAT,2023.1.3,Win32,60.13590715,
,,,,,,a,0,0.6527,,,,,,,,,0.6527,0,0,2,2,11,1,stimuli/blank.png,brutal,l,KR09AE,2023-08-10_20h32.45.828,openIAT,2023.1.3,Win32,60.13590715,
,,,,,,a,0,0.7144,,,,,,,,,0.7144,0,0,3,3,7,1,stimuli/blank.png,eigene,l,KR09AE,2023-08-10_20h32.45.828,openIAT,2023.1.3,Win32,60.13590715,
,,,,,,a,1,1.7622,,,,,,,,,1.7622,1,0,4,4,24,1,stimuli/blank.png,jene,a,KR09AE,2023-08-10_20h32.45.828,openIAT,2023.1.3,Win32,60.13590715,
,,,,,,l,1,0.7017,,,,,,,,,0.7017,1,0,5,5,25,1,stimuli/blank.png,meine,l,KR09AE,2023-08-10_20h32.45.828,openIAT,2023.1.3,Win32,60.13590715,
,,,,,,l,1,0.604,,,,,,,,,0.604,1,0,6,6,39,1,stimuli/blank.png,lustlos,l,KR09AE,2023-08-10_20h32.45.828,openIAT,2023.1.3,Win32,60.13590715,
,,,,,,a,1,0.615,,,,,,,,,0.615,1,0,7,7,10,1,stimuli/blank.png,aktiv,a,KR09AE,2023-08-10_20h32.45.828,openIAT,2023.1.3,Win32,60.13590715,
,,,,,,a,1,0.7865,,,,,,,,,0.7865,1,0,8,8,20,1,stimuli/blank.png,andere,a,KR09AE,2023-08-10_20h32.45.828,openIAT,2023.1.3,Win32,60.13590715,
,,,,,,l,1,0.564,,,,,,,,,0.564,1,0,9,9,33,1,stimuli/blank.png,verlogen,l,KR09AE,2023-08-10_20h32.45.828,openIAT,2023.1.3,Win32,60.13590715,
,,,,,,a,1,0.5518,,,,,,,,,0.5518,1,0,10,10,38,1,stimuli/blank.png,human,a,KR09AE,2023-08-10_20h32.45.828,openIAT,2023.1.3,Win32,60.13590715,
,,,,,,a,1,0.5981,,,,,,,,,0.5981,1,0,11,11,4,1,stimuli/blank.png,jene,a,KR09AE,2023-08-10_20h32.45.828,openIAT,2023.1.3,Win32,60.13590715,
,,,,,,a,1,0.8,,,,,,,,,0.8,1,0,12,12,0,1,stimuli/blank.png,andere,a,KR09AE,2023-08-10_20h32.45.828,openIAT,2023.1.3,Win32,60.13590715,
,,,,,,a,1,0.7168,,,,,,,,,0.7168,1,0,13,13,6,1,stimuli/blank.png,euch,a,KR09AE,2023-08-10_20h32.45.828,openIAT,2023.1.3,Win32,60.13590715,
,,,,,,a,1,0.7477,,,,,,,,,0.7477,1,0,14,14,36,1,stimuli/blank.png,begabt,a,KR09AE,2023-08-10_20h32.45.828,openIAT,2023.1.3,Win32,60.13590715,
,,,,,,l,1,0.5286,,,,,,,,,0.5286,1,0,15,15,35,1,stimuli/blank.png,träge,l,KR09AE,2023-08-10_20h32.45.828,openIAT,2023.1.3,Win32,60.13590715,
,,,,,,l,1,0.5585,,,,,,,,,0.5585,1,0,16,16,15,1,stimuli/blank.png,träge,l,KR09AE,2023-08-10_20h32.45.828,openIAT,2023.1.3,Win32,60.13590715,
,,,,,,l,1,0.5949,,,,,,,,,0.5949,1,0,17,17,23,1,stimuli/blank.png,mir,l,KR09AE,2023-08-10_20h32.45.828,openIAT,2023.1.3,Win32,60.13590715,
,,,,,,l,1,0.5619,,,,,,,,,0.5619,1,0,18,18,19,1,stimuli/blank.png,lustlos,l,KR09AE,2023-08-10_20h32.45.828,openIAT,2023.1.3,Win32,60.13590715,
,,,,,,a,1,0.5179,,,,,,,,,0.5179,1,0,19,19,30,1,stimuli/blank.png,aktiv,a,KR09AE,2023-08-10_20h32.45.828,openIAT,2023.1.3,Win32,60.13590715,
,,,,,,a,1,0.6289,,,,,,,,,0.6289,1,0,20,20,34,1,stimuli/blank.png,gerecht,a,KR09AE,2023-08-10_20h32.45.828,openIAT,2023.1.3,Win32,60.13590715,
,,,,,,l,1,0.7649,,,,,,,,,0.7649,1,0,21,21,17,1,stimuli/blank.png,eitel,l,KR09AE,2023-08-10_20h32.45.828,openIAT,2023.1.3,Win32,60.13590715,
,,,,,,a,1,1.4993,,,,,,,,,1.4993,1,0,22,22,14,1,stimuli/blank.png,gerecht,a,KR09AE,2023-08-10_20h32.45.828,openIAT,2023.1.3,Win32,60.13590715,
,,,,,,a,1,0.6138,,,,,,,,,0.6138,1,0,23,23,32,1,stimuli/blank.png,fröhlich,a,KR09AE,2023-08-10_20h32.45.828,openIAT,2023.1.3,Win32,60.13590715,
,,,,,,l,1,0.5989,,,,,,,,,0.5989,1,0,24,24,31,1,stimuli/blank.png,brutal,l,KR09AE,2023-08-10_20h32.45.828,openIAT,2023.1.3,Win32,60.13590715,
,,,,,,a,1,0.6647,,,,,,,,,0.6647,1,0,25,25,2,1,stimuli/blank.png,ihr,a,KR09AE,2023-08-10_20h32.45.828,openIAT,2023.1.3,Win32,60.13590715,
,,,,,,a,1,0.585,,,,,,,,,0.585,1,0,26,26,18,1,stimuli/blank.png,human,a,KR09AE,2023-08-10_20h32.45.828,openIAT,2023.1.3,Win32,60.13590715,
,,,,,,a,1,0.5862,,,,,,,,,0.5862,1,0,27,27,12,1,stimuli/blank.png,fröhlich,a,KR09AE,2023-08-10_20h32.45.828,openIAT,2023.1.3,Win32,60.13590715,
,,,,,,l,1,0.7803,,,,,,,,,0.7803,1,0,28,28,29,1,stimuli/blank.png,selbst,l,KR09AE,2023-08-10_20h32.45.828,openIAT,2023.1.3,Win32,60.13590715,
,,,,,,a,1,0.6479,,,,,,,,,0.6479,1,0,29,29,22,1,stimuli/blank.png,ihr,a,KR09AE,2023-08-10_20h32.45.828,openIAT,2023.1.3,Win32,60.13590715,
,,,,,,l,1,0.8394,,,,,,,,,0.8394,1,0,30,30,3,1,stimuli/blank.png,mir,l,KR09AE,2023-08-10_20h32.45.828,openIAT,2023.1.3,Win32,60.13590715,
,,,,,,l,1,0.6679,,,,,,,,,0.6679,1,0,31,31,21,1,stimuli/blank.png,ich,l,KR09AE,2023-08-10_20h32.45.828,openIAT,2023.1.3,Win32,60.13590715,
,,,,,,a,1,0.7985,,,,,,,,,0.7985,1,0,32,32,28,1,stimuli/blank.png,eure,a,KR09AE,2023-08-10_20h32.45.828,openIAT,2023.1.3,Win32,60.13590715,
,,,,,,l,1,0.6426,,,,,,,,,0.6426,1,0,33,33,1,1,stimuli/blank.png,ich,l,KR09AE,2023-08-10_20h32.45.828,openIAT,2023.1.3,Win32,60.13590715,
,,,,,,l,1,0.8866,,,,,,,,,0.8866,1,0,34,34,27,1,stimuli/blank.png,eigene,l,KR09AE,2023-08-10_20h32.45.828,openIAT,2023.1.3,Win32,60.13590715,
,,,,,,l,1,1.3873,,,,,,,,,1.3873,1,0,35,35,37,1,stimuli/blank.png,eitel,l,KR09AE,2023-08-10_20h32.45.828,openIAT,2023.1.3,Win32,60.13590715,
,,,,,,a,1,0.6147,,,,,,,,,0.6147,1,0,36,36,16,1,stimuli/blank.png,begabt,a,KR09AE,2023-08-10_20h32.45.828,openIAT,2023.1.3,Win32,60.13590715,
,,,,,,l,1,0.6143,,,,,,,,,0.6143,1,0,37,37,13,1,stimuli/blank.png,verlogen,l,KR09AE,2023-08-10_20h32.45.828,openIAT,2023.1.3,Win32,60.13590715,
,,,,,,l,1,0.7454,,,,,,,,,0.7454,1,0,38,38,9,1,stimuli/blank.png,selbst,l,KR09AE,2023-08-10_20h32.45.828,openIAT,2023.1.3,Win32,60.13590715,
,,,,,,l,1,0.4794,,,,,,,,,0.4794,1,0,39,39,5,1,stimuli/blank.png,meine,l,KR09AE,2023-08-10_20h32.45.828,openIAT,2023.1.3,Win32,60.13590715,
,,,,,,,,,,,,,,,,,,,,,,,,,,,KR09AE,2023-08-10_20h32.45.828,openIAT,2023.1.3,Win32,60.13590715,
