instr_done_touch.x,instr_done_touch.y,instr_done_touch.leftButton,instr_done_touch.midButton,instr_done_touch.rightButton,key_resp.keys,key_resp.corr,key_resp.rt,key_resp.duration,touch_resp.x,touch_resp.y,touch_resp.leftButton,touch_resp.midButton,touch_resp.rightButton,touch_resp.time,touch_resp.clicked_name,rt,corr,trials.thisRepN,trials.thisTrialN,trials.thisN,trials.thisIndex,trials.ran,stimImage,stimWord,CorrAns,participant,date,expName,psychopyVersion,OS,frameRate,return_tic
-0.178179825,-0.124451754,0,0,0,a,1,0.7944,,,,,,,,,0.7944,1,0,0,0,16,1,stimuli/blank.png,begabt,a,KT12SE,2023-08-28_10h01.01.901,openIAT,2023.1.3,Win32,60.0060006,
,,,,,a,1,0.6497,,,,,,,,,0.6497,1,0,1,1,4,1,stimuli/blank.png,gerecht,a,KT12SE,2023-08-28_10h01.01.901,openIAT,2023.1.3,Win32,60.0060006,
,,,,,l,1,0.5638,,,,,,,,,0.5638,1,0,2,2,1,1,stimuli/blank.png,brutal,l,KT12SE,2023-08-28_10h01.01.901,openIAT,2023.1.3,Win32,60.0060006,
,,,,,l,1,0.6631,,,,,,,,,0.6631,1,0,3,3,13,1,stimuli/blank.png,verlogen,l,KT12SE,2023-08-28_10h01.01.901,openIAT,2023.1.3,Win32,60.0060006,
,,,,,a,1,0.5806,,,,,,,,,0.5806,1,0,4,4,12,1,stimuli/blank.png,fröhlich,a,KT12SE,2023-08-28_10h01.01.901,openIAT,2023.1.3,Win32,60.0060006,
,,,,,a,0,0.5292,,,,,,,,,0.5292,0,0,5,5,19,1,stimuli/blank.png,lustlos,l,KT12SE,2023-08-28_10h01.01.901,openIAT,2023.1.3,Win32,60.0060006,
,,,,,l,1,0.8167,,,,,,,,,0.8167,1,0,6,6,11,1,stimuli/blank.png,brutal,l,KT12SE,2023-08-28_10h01.01.901,openIAT,2023.1.3,Win32,60.0060006,
,,,,,a,1,0.8469,,,,,,,,,0.8469,1,0,7,7,18,1,stimuli/blank.png,human,a,KT12SE,2023-08-28_10h01.01.901,openIAT,2023.1.3,Win32,60.0060006,
,,,,,a,0,0.5487,,,,,,,,,0.5487,0,0,8,8,15,1,stimuli/blank.png,träge,l,KT12SE,2023-08-28_10h01.01.901,openIAT,2023.1.3,Win32,60.0060006,
,,,,,l,1,0.6695,,,,,,,,,0.6695,1,0,9,9,5,1,stimuli/blank.png,träge,l,KT12SE,2023-08-28_10h01.01.901,openIAT,2023.1.3,Win32,60.0060006,
,,,,,a,1,0.8135,,,,,,,,,0.8135,1,0,10,10,10,1,stimuli/blank.png,aktiv,a,KT12SE,2023-08-28_10h01.01.901,openIAT,2023.1.3,Win32,60.0060006,
,,,,,l,1,0.5526,,,,,,,,,0.5526,1,0,11,11,3,1,stimuli/blank.png,verlogen,l,KT12SE,2023-08-28_10h01.01.901,openIAT,2023.1.3,Win32,60.0060006,
,,,,,l,1,0.9481,,,,,,,,,0.9481,1,0,12,12,7,1,stimuli/blank.png,eitel,l,KT12SE,2023-08-28_10h01.01.901,openIAT,2023.1.3,Win32,60.0060006,
,,,,,a,1,0.5643,,,,,,,,,0.5643,1,0,13,13,0,1,stimuli/blank.png,aktiv,a,KT12SE,2023-08-28_10h01.01.901,openIAT,2023.1.3,Win32,60.0060006,
,,,,,l,1,0.6309,,,,,,,,,0.6309,1,0,14,14,9,1,stimuli/blank.png,lustlos,l,KT12SE,2023-08-28_10h01.01.901,openIAT,2023.1.3,Win32,60.0060006,
,,,,,l,1,0.6491,,,,,,,,,0.6491,1,0,15,15,17,1,stimuli/blank.png,eitel,l,KT12SE,2023-08-28_10h01.01.901,openIAT,2023.1.3,Win32,60.0060006,
,,,,,a,1,0.5318,,,,,,,,,0.5318,1,0,16,16,2,1,stimuli/blank.png,fröhlich,a,KT12SE,2023-08-28_10h01.01.901,openIAT,2023.1.3,Win32,60.0060006,
,,,,,a,1,0.6312,,,,,,,,,0.6312,1,0,17,17,8,1,stimuli/blank.png,human,a,KT12SE,2023-08-28_10h01.01.901,openIAT,2023.1.3,Win32,60.0060006,
,,,,,a,1,0.6323,,,,,,,,,0.6323,1,0,18,18,14,1,stimuli/blank.png,gerecht,a,KT12SE,2023-08-28_10h01.01.901,openIAT,2023.1.3,Win32,60.0060006,
,,,,,a,1,0.6161,,,,,,,,,0.6161,1,0,19,19,6,1,stimuli/blank.png,begabt,a,KT12SE,2023-08-28_10h01.01.901,openIAT,2023.1.3,Win32,60.0060006,
,,,,,l,1,1.9032,,,,,,,,,1.9032,1,0,0,0,2,1,stimuli/blank.png,ihr,l,KT12SE,2023-08-28_10h01.01.901,openIAT,2023.1.3,Win32,60.0060006,
,,,,,a,1,0.6076,,,,,,,,,0.6076,1,0,1,1,5,1,stimuli/blank.png,meine,a,KT12SE,2023-08-28_10h01.01.901,openIAT,2023.1.3,Win32,60.0060006,
,,,,,l,1,0.7408,,,,,,,,,0.7408,1,0,2,2,18,1,stimuli/blank.png,eure,l,KT12SE,2023-08-28_10h01.01.901,openIAT,2023.1.3,Win32,60.0060006,
,,,,,l,1,0.536,,,,,,,,,0.536,1,0,3,3,8,1,stimuli/blank.png,eure,l,KT12SE,2023-08-28_10h01.01.901,openIAT,2023.1.3,Win32,60.0060006,
,,,,,l,1,0.473,,,,,,,,,0.473,1,0,4,4,6,1,stimuli/blank.png,euch,l,KT12SE,2023-08-28_10h01.01.901,openIAT,2023.1.3,Win32,60.0060006,
,,,,,a,1,0.4335,,,,,,,,,0.4335,1,0,5,5,19,1,stimuli/blank.png,selbst,a,KT12SE,2023-08-28_10h01.01.901,openIAT,2023.1.3,Win32,60.0060006,
,,,,,a,1,0.5256,,,,,,,,,0.5256,1,0,6,6,3,1,stimuli/blank.png,mir,a,KT12SE,2023-08-28_10h01.01.901,openIAT,2023.1.3,Win32,60.0060006,
,,,,,a,1,0.5012,,,,,,,,,0.5012,1,0,7,7,9,1,stimuli/blank.png,selbst,a,KT12SE,2023-08-28_10h01.01.901,openIAT,2023.1.3,Win32,60.0060006,
,,,,,a,0,0.4354,,,,,,,,,0.4354,0,0,8,8,12,1,stimuli/blank.png,ihr,l,KT12SE,2023-08-28_10h01.01.901,openIAT,2023.1.3,Win32,60.0060006,
,,,,,l,1,0.6853,,,,,,,,,0.6853,1,0,9,9,4,1,stimuli/blank.png,jene,l,KT12SE,2023-08-28_10h01.01.901,openIAT,2023.1.3,Win32,60.0060006,
,,,,,l,1,0.4515,,,,,,,,,0.4515,1,0,10,10,14,1,stimuli/blank.png,jene,l,KT12SE,2023-08-28_10h01.01.901,openIAT,2023.1.3,Win32,60.0060006,
,,,,,l,0,0.5098,,,,,,,,,0.5098,0,0,11,11,17,1,stimuli/blank.png,eigene,a,KT12SE,2023-08-28_10h01.01.901,openIAT,2023.1.3,Win32,60.0060006,
,,,,,l,1,0.7384,,,,,,,,,0.7384,1,0,12,12,10,1,stimuli/blank.png,andere,l,KT12SE,2023-08-28_10h01.01.901,openIAT,2023.1.3,Win32,60.0060006,
,,,,,a,1,0.551,,,,,,,,,0.551,1,0,13,13,11,1,stimuli/blank.png,ich,a,KT12SE,2023-08-28_10h01.01.901,openIAT,2023.1.3,Win32,60.0060006,
,,,,,a,1,0.4862,,,,,,,,,0.4862,1,0,14,14,1,1,stimuli/blank.png,ich,a,KT12SE,2023-08-28_10h01.01.901,openIAT,2023.1.3,Win32,60.0060006,
,,,,,a,1,0.5043,,,,,,,,,0.5043,1,0,15,15,15,1,stimuli/blank.png,meine,a,KT12SE,2023-08-28_10h01.01.901,openIAT,2023.1.3,Win32,60.0060006,
,,,,,a,1,0.8196,,,,,,,,,0.8196,1,0,16,16,7,1,stimuli/blank.png,eigene,a,KT12SE,2023-08-28_10h01.01.901,openIAT,2023.1.3,Win32,60.0060006,
,,,,,a,1,0.6185,,,,,,,,,0.6185,1,0,17,17,13,1,stimuli/blank.png,mir,a,KT12SE,2023-08-28_10h01.01.901,openIAT,2023.1.3,Win32,60.0060006,
,,,,,l,1,0.6904,,,,,,,,,0.6904,1,0,18,18,0,1,stimuli/blank.png,andere,l,KT12SE,2023-08-28_10h01.01.901,openIAT,2023.1.3,Win32,60.0060006,
,,,,,l,1,0.4673,,,,,,,,,0.4673,1,0,19,19,16,1,stimuli/blank.png,euch,l,KT12SE,2023-08-28_10h01.01.901,openIAT,2023.1.3,Win32,60.0060006,
,,,,,l,1,0.576,,,,,,,,,0.576,1,0,0,0,8,1,stimuli/blank.png,eure,l,KT12SE,2023-08-28_10h01.01.901,openIAT,2023.1.3,Win32,60.0060006,
,,,,,l,1,2.0535,,,,,,,,,2.0535,1,0,1,1,17,1,stimuli/blank.png,eitel,l,KT12SE,2023-08-28_10h01.01.901,openIAT,2023.1.3,Win32,60.0060006,
,,,,,l,1,0.6608,,,,,,,,,0.6608,1,0,2,2,4,1,stimuli/blank.png,jene,l,KT12SE,2023-08-28_10h01.01.901,openIAT,2023.1.3,Win32,60.0060006,
,,,,,a,1,0.6292,,,,,,,,,0.6292,1,0,3,3,16,1,stimuli/blank.png,begabt,a,KT12SE,2023-08-28_10h01.01.901,openIAT,2023.1.3,Win32,60.0060006,
,,,,,l,1,0.7375,,,,,,,,,0.7375,1,0,4,4,0,1,stimuli/blank.png,andere,l,KT12SE,2023-08-28_10h01.01.901,openIAT,2023.1.3,Win32,60.0060006,
,,,,,a,1,0.7541,,,,,,,,,0.7541,1,0,5,5,7,1,stimuli/blank.png,eigene,a,KT12SE,2023-08-28_10h01.01.901,openIAT,2023.1.3,Win32,60.0060006,
,,,,,a,1,0.6983,,,,,,,,,0.6983,1,0,6,6,1,1,stimuli/blank.png,ich,a,KT12SE,2023-08-28_10h01.01.901,openIAT,2023.1.3,Win32,60.0060006,
,,,,,l,1,0.7942,,,,,,,,,0.7942,1,0,7,7,15,1,stimuli/blank.png,träge,l,KT12SE,2023-08-28_10h01.01.901,openIAT,2023.1.3,Win32,60.0060006,
,,,,,a,1,0.5198,,,,,,,,,0.5198,1,0,8,8,3,1,stimuli/blank.png,mir,a,KT12SE,2023-08-28_10h01.01.901,openIAT,2023.1.3,Win32,60.0060006,
,,,,,a,1,0.5616,,,,,,,,,0.5616,1,0,9,9,18,1,stimuli/blank.png,human,a,KT12SE,2023-08-28_10h01.01.901,openIAT,2023.1.3,Win32,60.0060006,
,,,,,a,0,0.4967,,,,,,,,,0.4967,0,0,10,10,2,1,stimuli/blank.png,ihr,l,KT12SE,2023-08-28_10h01.01.901,openIAT,2023.1.3,Win32,60.0060006,
,,,,,l,1,0.6131,,,,,,,,,0.6131,1,0,11,11,11,1,stimuli/blank.png,brutal,l,KT12SE,2023-08-28_10h01.01.901,openIAT,2023.1.3,Win32,60.0060006,
,,,,,a,1,0.5509,,,,,,,,,0.5509,1,0,12,12,12,1,stimuli/blank.png,fröhlich,a,KT12SE,2023-08-28_10h01.01.901,openIAT,2023.1.3,Win32,60.0060006,
,,,,,l,1,0.702,,,,,,,,,0.702,1,0,13,13,6,1,stimuli/blank.png,euch,l,KT12SE,2023-08-28_10h01.01.901,openIAT,2023.1.3,Win32,60.0060006,
,,,,,a,1,0.5847,,,,,,,,,0.5847,1,0,14,14,9,1,stimuli/blank.png,selbst,a,KT12SE,2023-08-28_10h01.01.901,openIAT,2023.1.3,Win32,60.0060006,
,,,,,a,1,0.5857,,,,,,,,,0.5857,1,0,15,15,5,1,stimuli/blank.png,meine,a,KT12SE,2023-08-28_10h01.01.901,openIAT,2023.1.3,Win32,60.0060006,
,,,,,l,1,0.472,,,,,,,,,0.472,1,0,16,16,19,1,stimuli/blank.png,lustlos,l,KT12SE,2023-08-28_10h01.01.901,openIAT,2023.1.3,Win32,60.0060006,
,,,,,a,1,0.5691,,,,,,,,,0.5691,1,0,17,17,10,1,stimuli/blank.png,aktiv,a,KT12SE,2023-08-28_10h01.01.901,openIAT,2023.1.3,Win32,60.0060006,
,,,,,l,1,0.4689,,,,,,,,,0.4689,1,0,18,18,13,1,stimuli/blank.png,verlogen,l,KT12SE,2023-08-28_10h01.01.901,openIAT,2023.1.3,Win32,60.0060006,
,,,,,a,1,0.6758,,,,,,,,,0.6758,1,0,19,19,14,1,stimuli/blank.png,gerecht,a,KT12SE,2023-08-28_10h01.01.901,openIAT,2023.1.3,Win32,60.0060006,
,,,,,l,1,2.2848,,,,,,,,,2.2848,1,0,0,0,6,1,stimuli/blank.png,euch,l,KT12SE,2023-08-28_10h01.01.901,openIAT,2023.1.3,Win32,60.0060006,
,,,,,l,1,0.5987,,,,,,,,,0.5987,1,0,1,1,39,1,stimuli/blank.png,lustlos,l,KT12SE,2023-08-28_10h01.01.901,openIAT,2023.1.3,Win32,60.0060006,
,,,,,a,1,0.5289,,,,,,,,,0.5289,1,0,2,2,30,1,stimuli/blank.png,aktiv,a,KT12SE,2023-08-28_10h01.01.901,openIAT,2023.1.3,Win32,60.0060006,
,,,,,a,1,0.5514,,,,,,,,,0.5514,1,0,3,3,32,1,stimuli/blank.png,fröhlich,a,KT12SE,2023-08-28_10h01.01.901,openIAT,2023.1.3,Win32,60.0060006,
,,,,,a,1,0.6436,,,,,,,,,0.6436,1,0,4,4,36,1,stimuli/blank.png,begabt,a,KT12SE,2023-08-28_10h01.01.901,openIAT,2023.1.3,Win32,60.0060006,
,,,,,a,1,0.6579,,,,,,,,,0.6579,1,0,5,5,10,1,stimuli/blank.png,aktiv,a,KT12SE,2023-08-28_10h01.01.901,openIAT,2023.1.3,Win32,60.0060006,
,,,,,l,1,1.0358,,,,,,,,,1.0358,1,0,6,6,17,1,stimuli/blank.png,eitel,l,KT12SE,2023-08-28_10h01.01.901,openIAT,2023.1.3,Win32,60.0060006,
,,,,,l,1,0.4341,,,,,,,,,0.4341,1,0,7,7,0,1,stimuli/blank.png,andere,l,KT12SE,2023-08-28_10h01.01.901,openIAT,2023.1.3,Win32,60.0060006,
,,,,,a,1,0.6185,,,,,,,,,0.6185,1,0,8,8,27,1,stimuli/blank.png,eigene,a,KT12SE,2023-08-28_10h01.01.901,openIAT,2023.1.3,Win32,60.0060006,
,,,,,l,1,0.5474,,,,,,,,,0.5474,1,0,9,9,33,1,stimuli/blank.png,verlogen,l,KT12SE,2023-08-28_10h01.01.901,openIAT,2023.1.3,Win32,60.0060006,
,,,,,a,1,0.5914,,,,,,,,,0.5914,1,0,10,10,38,1,stimuli/blank.png,human,a,KT12SE,2023-08-28_10h01.01.901,openIAT,2023.1.3,Win32,60.0060006,
,,,,,l,1,0.6509,,,,,,,,,0.6509,1,0,11,11,4,1,stimuli/blank.png,jene,l,KT12SE,2023-08-28_10h01.01.901,openIAT,2023.1.3,Win32,60.0060006,
,,,,,a,1,0.4717,,,,,,,,,0.4717,1,0,12,12,21,1,stimuli/blank.png,ich,a,KT12SE,2023-08-28_10h01.01.901,openIAT,2023.1.3,Win32,60.0060006,
,,,,,a,1,0.5529,,,,,,,,,0.5529,1,0,13,13,5,1,stimuli/blank.png,meine,a,KT12SE,2023-08-28_10h01.01.901,openIAT,2023.1.3,Win32,60.0060006,
,,,,,l,1,0.5342,,,,,,,,,0.5342,1,0,14,14,28,1,stimuli/blank.png,eure,l,KT12SE,2023-08-28_10h01.01.901,openIAT,2023.1.3,Win32,60.0060006,
,,,,,a,1,0.6034,,,,,,,,,0.6034,1,0,15,15,34,1,stimuli/blank.png,gerecht,a,KT12SE,2023-08-28_10h01.01.901,openIAT,2023.1.3,Win32,60.0060006,
,,,,,a,1,0.6519,,,,,,,,,0.6519,1,0,16,16,12,1,stimuli/blank.png,fröhlich,a,KT12SE,2023-08-28_10h01.01.901,openIAT,2023.1.3,Win32,60.0060006,
,,,,,l,1,0.5415,,,,,,,,,0.5415,1,0,17,17,35,1,stimuli/blank.png,träge,l,KT12SE,2023-08-28_10h01.01.901,openIAT,2023.1.3,Win32,60.0060006,
,,,,,a,1,0.5517,,,,,,,,,0.5517,1,0,18,18,29,1,stimuli/blank.png,selbst,a,KT12SE,2023-08-28_10h01.01.901,openIAT,2023.1.3,Win32,60.0060006,
,,,,,a,1,0.4995,,,,,,,,,0.4995,1,0,19,19,1,1,stimuli/blank.png,ich,a,KT12SE,2023-08-28_10h01.01.901,openIAT,2023.1.3,Win32,60.0060006,
,,,,,a,1,0.7013,,,,,,,,,0.7013,1,0,20,20,14,1,stimuli/blank.png,gerecht,a,KT12SE,2023-08-28_10h01.01.901,openIAT,2023.1.3,Win32,60.0060006,
,,,,,l,1,0.5064,,,,,,,,,0.5064,1,0,21,21,31,1,stimuli/blank.png,brutal,l,KT12SE,2023-08-28_10h01.01.901,openIAT,2023.1.3,Win32,60.0060006,
,,,,,l,1,0.802,,,,,,,,,0.802,1,0,22,22,19,1,stimuli/blank.png,lustlos,l,KT12SE,2023-08-28_10h01.01.901,openIAT,2023.1.3,Win32,60.0060006,
,,,,,a,0,0.602,,,,,,,,,0.602,0,0,23,23,15,1,stimuli/blank.png,träge,l,KT12SE,2023-08-28_10h01.01.901,openIAT,2023.1.3,Win32,60.0060006,
,,,,,a,1,0.5856,,,,,,,,,0.5856,1,0,24,24,25,1,stimuli/blank.png,meine,a,KT12SE,2023-08-28_10h01.01.901,openIAT,2023.1.3,Win32,60.0060006,
,,,,,a,1,0.7477,,,,,,,,,0.7477,1,0,25,25,18,1,stimuli/blank.png,human,a,KT12SE,2023-08-28_10h01.01.901,openIAT,2023.1.3,Win32,60.0060006,
,,,,,l,1,0.6549,,,,,,,,,0.6549,1,0,26,26,2,1,stimuli/blank.png,ihr,l,KT12SE,2023-08-28_10h01.01.901,openIAT,2023.1.3,Win32,60.0060006,
,,,,,l,1,0.6993,,,,,,,,,0.6993,1,0,27,27,37,1,stimuli/blank.png,eitel,l,KT12SE,2023-08-28_10h01.01.901,openIAT,2023.1.3,Win32,60.0060006,
,,,,,a,1,0.5347,,,,,,,,,0.5347,1,0,28,28,3,1,stimuli/blank.png,mir,a,KT12SE,2023-08-28_10h01.01.901,openIAT,2023.1.3,Win32,60.0060006,
,,,,,l,1,0.5523,,,,,,,,,0.5523,1,0,29,29,11,1,stimuli/blank.png,brutal,l,KT12SE,2023-08-28_10h01.01.901,openIAT,2023.1.3,Win32,60.0060006,
,,,,,a,1,0.6523,,,,,,,,,0.6523,1,0,30,30,16,1,stimuli/blank.png,begabt,a,KT12SE,2023-08-28_10h01.01.901,openIAT,2023.1.3,Win32,60.0060006,
,,,,,a,1,0.6593,,,,,,,,,0.6593,1,0,31,31,7,1,stimuli/blank.png,eigene,a,KT12SE,2023-08-28_10h01.01.901,openIAT,2023.1.3,Win32,60.0060006,
,,,,,l,1,0.569,,,,,,,,,0.569,1,0,32,32,22,1,stimuli/blank.png,ihr,l,KT12SE,2023-08-28_10h01.01.901,openIAT,2023.1.3,Win32,60.0060006,
,,,,,l,1,0.5474,,,,,,,,,0.5474,1,0,33,33,13,1,stimuli/blank.png,verlogen,l,KT12SE,2023-08-28_10h01.01.901,openIAT,2023.1.3,Win32,60.0060006,
,,,,,a,1,0.6683,,,,,,,,,0.6683,1,0,34,34,23,1,stimuli/blank.png,mir,a,KT12SE,2023-08-28_10h01.01.901,openIAT,2023.1.3,Win32,60.0060006,
,,,,,l,1,0.6078,,,,,,,,,0.6078,1,0,35,35,26,1,stimuli/blank.png,euch,l,KT12SE,2023-08-28_10h01.01.901,openIAT,2023.1.3,Win32,60.0060006,
,,,,,l,1,0.4861,,,,,,,,,0.4861,1,0,36,36,20,1,stimuli/blank.png,andere,l,KT12SE,2023-08-28_10h01.01.901,openIAT,2023.1.3,Win32,60.0060006,
,,,,,l,1,0.6005,,,,,,,,,0.6005,1,0,37,37,24,1,stimuli/blank.png,jene,l,KT12SE,2023-08-28_10h01.01.901,openIAT,2023.1.3,Win32,60.0060006,
,,,,,l,1,0.5231,,,,,,,,,0.5231,1,0,38,38,8,1,stimuli/blank.png,eure,l,KT12SE,2023-08-28_10h01.01.901,openIAT,2023.1.3,Win32,60.0060006,
,,,,,a,1,0.5771,,,,,,,,,0.5771,1,0,39,39,9,1,stimuli/blank.png,selbst,a,KT12SE,2023-08-28_10h01.01.901,openIAT,2023.1.3,Win32,60.0060006,
,,,,,a,1,0.7176,,,,,,,,,0.7176,1,0,0,0,16,1,stimuli/blank.png,euch,a,KT12SE,2023-08-28_10h01.01.901,openIAT,2023.1.3,Win32,60.0060006,
,,,,,a,1,0.4694,,,,,,,,,0.4694,1,0,1,1,0,1,stimuli/blank.png,andere,a,KT12SE,2023-08-28_10h01.01.901,openIAT,2023.1.3,Win32,60.0060006,
,,,,,a,0,0.4905,,,,,,,,,0.4905,0,0,2,2,7,1,stimuli/blank.png,eigene,l,KT12SE,2023-08-28_10h01.01.901,openIAT,2023.1.3,Win32,60.0060006,
,,,,,l,1,0.5191,,,,,,,,,0.5191,1,0,3,3,19,1,stimuli/blank.png,selbst,l,KT12SE,2023-08-28_10h01.01.901,openIAT,2023.1.3,Win32,60.0060006,
,,,,,l,1,0.4065,,,,,,,,,0.4065,1,0,4,4,13,1,stimuli/blank.png,mir,l,KT12SE,2023-08-28_10h01.01.901,openIAT,2023.1.3,Win32,60.0060006,
,,,,,l,1,0.5699,,,,,,,,,0.5699,1,0,5,5,15,1,stimuli/blank.png,meine,l,KT12SE,2023-08-28_10h01.01.901,openIAT,2023.1.3,Win32,60.0060006,
,,,,,a,1,0.769,,,,,,,,,0.769,1,0,6,6,14,1,stimuli/blank.png,jene,a,KT12SE,2023-08-28_10h01.01.901,openIAT,2023.1.3,Win32,60.0060006,
,,,,,a,1,0.5012,,,,,,,,,0.5012,1,0,7,7,4,1,stimuli/blank.png,jene,a,KT12SE,2023-08-28_10h01.01.901,openIAT,2023.1.3,Win32,60.0060006,
,,,,,l,1,0.4522,,,,,,,,,0.4522,1,0,8,8,9,1,stimuli/blank.png,selbst,l,KT12SE,2023-08-28_10h01.01.901,openIAT,2023.1.3,Win32,60.0060006,
,,,,,l,1,0.4423,,,,,,,,,0.4423,1,0,9,9,11,1,stimuli/blank.png,ich,l,KT12SE,2023-08-28_10h01.01.901,openIAT,2023.1.3,Win32,60.0060006,
,,,,,l,0,0.4355,,,,,,,,,0.4355,0,0,10,10,12,1,stimuli/blank.png,ihr,a,KT12SE,2023-08-28_10h01.01.901,openIAT,2023.1.3,Win32,60.0060006,
,,,,,a,1,0.6106,,,,,,,,,0.6106,1,0,11,11,6,1,stimuli/blank.png,euch,a,KT12SE,2023-08-28_10h01.01.901,openIAT,2023.1.3,Win32,60.0060006,
,,,,,a,1,0.4728,,,,,,,,,0.4728,1,0,12,12,8,1,stimuli/blank.png,eure,a,KT12SE,2023-08-28_10h01.01.901,openIAT,2023.1.3,Win32,60.0060006,
,,,,,l,1,0.6171,,,,,,,,,0.6171,1,0,13,13,3,1,stimuli/blank.png,mir,l,KT12SE,2023-08-28_10h01.01.901,openIAT,2023.1.3,Win32,60.0060006,
,,,,,l,1,0.5224,,,,,,,,,0.5224,1,0,14,14,1,1,stimuli/blank.png,ich,l,KT12SE,2023-08-28_10h01.01.901,openIAT,2023.1.3,Win32,60.0060006,
,,,,,a,1,0.5853,,,,,,,,,0.5853,1,0,15,15,10,1,stimuli/blank.png,andere,a,KT12SE,2023-08-28_10h01.01.901,openIAT,2023.1.3,Win32,60.0060006,
,,,,,l,1,0.7375,,,,,,,,,0.7375,1,0,16,16,17,1,stimuli/blank.png,eigene,l,KT12SE,2023-08-28_10h01.01.901,openIAT,2023.1.3,Win32,60.0060006,
,,,,,l,1,0.437,,,,,,,,,0.437,1,0,17,17,5,1,stimuli/blank.png,meine,l,KT12SE,2023-08-28_10h01.01.901,openIAT,2023.1.3,Win32,60.0060006,
,,,,,l,0,0.5391,,,,,,,,,0.5391,0,0,18,18,2,1,stimuli/blank.png,ihr,a,KT12SE,2023-08-28_10h01.01.901,openIAT,2023.1.3,Win32,60.0060006,
,,,,,a,1,0.6814,,,,,,,,,0.6814,1,0,19,19,18,1,stimuli/blank.png,eure,a,KT12SE,2023-08-28_10h01.01.901,openIAT,2023.1.3,Win32,60.0060006,
,,,,,l,0,0.78,,,,,,,,,0.78,0,0,0,0,12,1,stimuli/blank.png,fröhlich,a,KT12SE,2023-08-28_10h01.01.901,openIAT,2023.1.3,Win32,60.0060006,
,,,,,l,1,0.6182,,,,,,,,,0.6182,1,0,1,1,5,1,stimuli/blank.png,meine,l,KT12SE,2023-08-28_10h01.01.901,openIAT,2023.1.3,Win32,60.0060006,
,,,,,a,0,0.7188,,,,,,,,,0.7188,0,0,2,2,13,1,stimuli/blank.png,verlogen,l,KT12SE,2023-08-28_10h01.01.901,openIAT,2023.1.3,Win32,60.0060006,
,,,,,a,1,1.9187,,,,,,,,,1.9187,1,0,3,3,14,1,stimuli/blank.png,gerecht,a,KT12SE,2023-08-28_10h01.01.901,openIAT,2023.1.3,Win32,60.0060006,
,,,,,l,1,1.2712,,,,,,,,,1.2712,1,0,4,4,19,1,stimuli/blank.png,lustlos,l,KT12SE,2023-08-28_10h01.01.901,openIAT,2023.1.3,Win32,60.0060006,
,,,,,a,1,0.9294,,,,,,,,,0.9294,1,0,5,5,16,1,stimuli/blank.png,begabt,a,KT12SE,2023-08-28_10h01.01.901,openIAT,2023.1.3,Win32,60.0060006,
,,,,,a,1,0.6474,,,,,,,,,0.6474,1,0,6,6,2,1,stimuli/blank.png,ihr,a,KT12SE,2023-08-28_10h01.01.901,openIAT,2023.1.3,Win32,60.0060006,
,,,,,l,1,0.6693,,,,,,,,,0.6693,1,0,7,7,1,1,stimuli/blank.png,ich,l,KT12SE,2023-08-28_10h01.01.901,openIAT,2023.1.3,Win32,60.0060006,
,,,,,l,1,0.5442,,,,,,,,,0.5442,1,0,8,8,15,1,stimuli/blank.png,träge,l,KT12SE,2023-08-28_10h01.01.901,openIAT,2023.1.3,Win32,60.0060006,
,,,,,a,0,0.7311,,,,,,,,,0.7311,0,0,9,9,7,1,stimuli/blank.png,eigene,l,KT12SE,2023-08-28_10h01.01.901,openIAT,2023.1.3,Win32,60.0060006,
,,,,,l,1,1.1975,,,,,,,,,1.1975,1,0,10,10,17,1,stimuli/blank.png,eitel,l,KT12SE,2023-08-28_10h01.01.901,openIAT,2023.1.3,Win32,60.0060006,
,,,,,a,1,0.7507,,,,,,,,,0.7507,1,0,11,11,10,1,stimuli/blank.png,aktiv,a,KT12SE,2023-08-28_10h01.01.901,openIAT,2023.1.3,Win32,60.0060006,
,,,,,l,1,0.515,,,,,,,,,0.515,1,0,12,12,9,1,stimuli/blank.png,selbst,l,KT12SE,2023-08-28_10h01.01.901,openIAT,2023.1.3,Win32,60.0060006,
,,,,,a,1,0.6786,,,,,,,,,0.6786,1,0,13,13,6,1,stimuli/blank.png,euch,a,KT12SE,2023-08-28_10h01.01.901,openIAT,2023.1.3,Win32,60.0060006,
,,,,,l,1,0.949,,,,,,,,,0.949,1,0,14,14,11,1,stimuli/blank.png,brutal,l,KT12SE,2023-08-28_10h01.01.901,openIAT,2023.1.3,Win32,60.0060006,
,,,,,a,1,0.9964,,,,,,,,,0.9964,1,0,15,15,4,1,stimuli/blank.png,jene,a,KT12SE,2023-08-28_10h01.01.901,openIAT,2023.1.3,Win32,60.0060006,
,,,,,a,1,0.6305,,,,,,,,,0.6305,1,0,16,16,18,1,stimuli/blank.png,human,a,KT12SE,2023-08-28_10h01.01.901,openIAT,2023.1.3,Win32,60.0060006,
,,,,,l,1,0.717,,,,,,,,,0.717,1,0,17,17,3,1,stimuli/blank.png,mir,l,KT12SE,2023-08-28_10h01.01.901,openIAT,2023.1.3,Win32,60.0060006,
,,,,,a,1,0.6041,,,,,,,,,0.6041,1,0,18,18,0,1,stimuli/blank.png,andere,a,KT12SE,2023-08-28_10h01.01.901,openIAT,2023.1.3,Win32,60.0060006,
,,,,,a,1,0.769,,,,,,,,,0.769,1,0,19,19,8,1,stimuli/blank.png,eure,a,KT12SE,2023-08-28_10h01.01.901,openIAT,2023.1.3,Win32,60.0060006,
,,,,,l,1,0.8176,,,,,,,,,0.8176,1,0,0,0,7,1,stimuli/blank.png,eigene,l,KT12SE,2023-08-28_10h01.01.901,openIAT,2023.1.3,Win32,60.0060006,
,,,,,a,1,0.6923,,,,,,,,,0.6923,1,0,1,1,8,1,stimuli/blank.png,eure,a,KT12SE,2023-08-28_10h01.01.901,openIAT,2023.1.3,Win32,60.0060006,
,,,,,a,1,0.7899,,,,,,,,,0.7899,1,0,2,2,18,1,stimuli/blank.png,human,a,KT12SE,2023-08-28_10h01.01.901,openIAT,2023.1.3,Win32,60.0060006,
,,,,,l,1,0.5362,,,,,,,,,0.5362,1,0,3,3,37,1,stimuli/blank.png,eitel,l,KT12SE,2023-08-28_10h01.01.901,openIAT,2023.1.3,Win32,60.0060006,
,,,,,l,1,0.5793,,,,,,,,,0.5793,1,0,4,4,9,1,stimuli/blank.png,selbst,l,KT12SE,2023-08-28_10h01.01.901,openIAT,2023.1.3,Win32,60.0060006,
,,,,,a,1,0.8202,,,,,,,,,0.8202,1,0,5,5,30,1,stimuli/blank.png,aktiv,a,KT12SE,2023-08-28_10h01.01.901,openIAT,2023.1.3,Win32,60.0060006,
,,,,,a,1,0.5779,,,,,,,,,0.5779,1,0,6,6,20,1,stimuli/blank.png,andere,a,KT12SE,2023-08-28_10h01.01.901,openIAT,2023.1.3,Win32,60.0060006,
,,,,,a,0,0.812,,,,,,,,,0.812,0,0,7,7,31,1,stimuli/blank.png,brutal,l,KT12SE,2023-08-28_10h01.01.901,openIAT,2023.1.3,Win32,60.0060006,
,,,,,l,1,1.0217,,,,,,,,,1.0217,1,0,8,8,21,1,stimuli/blank.png,ich,l,KT12SE,2023-08-28_10h01.01.901,openIAT,2023.1.3,Win32,60.0060006,
,,,,,a,1,0.8626,,,,,,,,,0.8626,1,0,9,9,6,1,stimuli/blank.png,euch,a,KT12SE,2023-08-28_10h01.01.901,openIAT,2023.1.3,Win32,60.0060006,
,,,,,a,1,0.7003,,,,,,,,,0.7003,1,0,10,10,14,1,stimuli/blank.png,gerecht,a,KT12SE,2023-08-28_10h01.01.901,openIAT,2023.1.3,Win32,60.0060006,
,,,,,a,1,0.9349,,,,,,,,,0.9349,1,0,11,11,2,1,stimuli/blank.png,ihr,a,KT12SE,2023-08-28_10h01.01.901,openIAT,2023.1.3,Win32,60.0060006,
,,,,,l,1,0.7229,,,,,,,,,0.7229,1,0,12,12,13,1,stimuli/blank.png,verlogen,l,KT12SE,2023-08-28_10h01.01.901,openIAT,2023.1.3,Win32,60.0060006,
,,,,,a,1,0.6181,,,,,,,,,0.6181,1,0,13,13,38,1,stimuli/blank.png,human,a,KT12SE,2023-08-28_10h01.01.901,openIAT,2023.1.3,Win32,60.0060006,
,,,,,a,1,0.6019,,,,,,,,,0.6019,1,0,14,14,26,1,stimuli/blank.png,euch,a,KT12SE,2023-08-28_10h01.01.901,openIAT,2023.1.3,Win32,60.0060006,
,,,,,a,1,0.5603,,,,,,,,,0.5603,1,0,15,15,28,1,stimuli/blank.png,eure,a,KT12SE,2023-08-28_10h01.01.901,openIAT,2023.1.3,Win32,60.0060006,
,,,,,l,1,0.5585,,,,,,,,,0.5585,1,0,16,16,35,1,stimuli/blank.png,träge,l,KT12SE,2023-08-28_10h01.01.901,openIAT,2023.1.3,Win32,60.0060006,
,,,,,a,1,0.7185,,,,,,,,,0.7185,1,0,17,17,0,1,stimuli/blank.png,andere,a,KT12SE,2023-08-28_10h01.01.901,openIAT,2023.1.3,Win32,60.0060006,
,,,,,l,1,0.685,,,,,,,,,0.685,1,0,18,18,5,1,stimuli/blank.png,meine,l,KT12SE,2023-08-28_10h01.01.901,openIAT,2023.1.3,Win32,60.0060006,
,,,,,l,1,0.5338,,,,,,,,,0.5338,1,0,19,19,25,1,stimuli/blank.png,meine,l,KT12SE,2023-08-28_10h01.01.901,openIAT,2023.1.3,Win32,60.0060006,
,,,,,l,1,0.6682,,,,,,,,,0.6682,1,0,20,20,33,1,stimuli/blank.png,verlogen,l,KT12SE,2023-08-28_10h01.01.901,openIAT,2023.1.3,Win32,60.0060006,
,,,,,a,0,0.6519,,,,,,,,,0.6519,0,0,21,21,39,1,stimuli/blank.png,lustlos,l,KT12SE,2023-08-28_10h01.01.901,openIAT,2023.1.3,Win32,60.0060006,
,,,,,l,1,0.8813,,,,,,,,,0.8813,1,0,22,22,15,1,stimuli/blank.png,träge,l,KT12SE,2023-08-28_10h01.01.901,openIAT,2023.1.3,Win32,60.0060006,
,,,,,l,1,0.5897,,,,,,,,,0.5897,1,0,23,23,17,1,stimuli/blank.png,eitel,l,KT12SE,2023-08-28_10h01.01.901,openIAT,2023.1.3,Win32,60.0060006,
,,,,,a,1,0.7689,,,,,,,,,0.7689,1,0,24,24,24,1,stimuli/blank.png,jene,a,KT12SE,2023-08-28_10h01.01.901,openIAT,2023.1.3,Win32,60.0060006,
,,,,,l,0,0.918,,,,,,,,,0.918,0,0,25,25,34,1,stimuli/blank.png,gerecht,a,KT12SE,2023-08-28_10h01.01.901,openIAT,2023.1.3,Win32,60.0060006,
,,,,,l,1,0.5906,,,,,,,,,0.5906,1,0,26,26,29,1,stimuli/blank.png,selbst,l,KT12SE,2023-08-28_10h01.01.901,openIAT,2023.1.3,Win32,60.0060006,
,,,,,a,1,0.9558,,,,,,,,,0.9558,1,0,27,27,22,1,stimuli/blank.png,ihr,a,KT12SE,2023-08-28_10h01.01.901,openIAT,2023.1.3,Win32,60.0060006,
,,,,,l,1,0.7687,,,,,,,,,0.7687,1,0,28,28,23,1,stimuli/blank.png,mir,l,KT12SE,2023-08-28_10h01.01.901,openIAT,2023.1.3,Win32,60.0060006,
,,,,,l,0,1.3233,,,,,,,,,1.3233,0,0,29,29,10,1,stimuli/blank.png,aktiv,a,KT12SE,2023-08-28_10h01.01.901,openIAT,2023.1.3,Win32,60.0060006,
,,,,,a,0,0.8539,,,,,,,,,0.8539,0,0,30,30,19,1,stimuli/blank.png,lustlos,l,KT12SE,2023-08-28_10h01.01.901,openIAT,2023.1.3,Win32,60.0060006,
,,,,,l,1,0.7717,,,,,,,,,0.7717,1,0,31,31,11,1,stimuli/blank.png,brutal,l,KT12SE,2023-08-28_10h01.01.901,openIAT,2023.1.3,Win32,60.0060006,
,,,,,a,1,0.9257,,,,,,,,,0.9257,1,0,32,32,36,1,stimuli/blank.png,begabt,a,KT12SE,2023-08-28_10h01.01.901,openIAT,2023.1.3,Win32,60.0060006,
,,,,,a,1,1.6366,,,,,,,,,1.6366,1,0,33,33,32,1,stimuli/blank.png,fröhlich,a,KT12SE,2023-08-28_10h01.01.901,openIAT,2023.1.3,Win32,60.0060006,
,,,,,l,1,0.8159,,,,,,,,,0.8159,1,0,34,34,1,1,stimuli/blank.png,ich,l,KT12SE,2023-08-28_10h01.01.901,openIAT,2023.1.3,Win32,60.0060006,
,,,,,a,1,1.0877,,,,,,,,,1.0877,1,0,35,35,12,1,stimuli/blank.png,fröhlich,a,KT12SE,2023-08-28_10h01.01.901,openIAT,2023.1.3,Win32,60.0060006,
,,,,,a,1,1.348,,,,,,,,,1.348,1,0,36,36,4,1,stimuli/blank.png,jene,a,KT12SE,2023-08-28_10h01.01.901,openIAT,2023.1.3,Win32,60.0060006,
,,,,,a,1,0.8454,,,,,,,,,0.8454,1,0,37,37,16,1,stimuli/blank.png,begabt,a,KT12SE,2023-08-28_10h01.01.901,openIAT,2023.1.3,Win32,60.0060006,
,,,,,l,1,0.7647,,,,,,,,,0.7647,1,0,38,38,27,1,stimuli/blank.png,eigene,l,KT12SE,2023-08-28_10h01.01.901,openIAT,2023.1.3,Win32,60.0060006,
,,,,,l,1,0.7104,,,,,,,,,0.7104,1,0,39,39,3,1,stimuli/blank.png,mir,l,KT12SE,2023-08-28_10h01.01.901,openIAT,2023.1.3,Win32,60.0060006,
,,,,,,,,,,,,,,,,,,,,,,,,,,KT12SE,2023-08-28_10h01.01.901,openIAT,2023.1.3,Win32,60.0060006,
