instr_done_touch.x,instr_done_touch.y,instr_done_touch.leftButton,instr_done_touch.midButton,instr_done_touch.rightButton,instr_done_touch.clicked_name,key_resp.keys,key_resp.corr,key_resp.rt,key_resp.duration,touch_resp.x,touch_resp.y,touch_resp.leftButton,touch_resp.midButton,touch_resp.rightButton,touch_resp.time,touch_resp.clicked_name,rt,corr,trials.thisRepN,trials.thisTrialN,trials.thisN,trials.thisIndex,trials.ran,stimImage,stimWord,CorrAns,participant,date,expName,psychopyVersion,OS,frameRate,return_tic
0.052910053,-0.403703704,1,0,0,instr_done_button,a,1,1.214,,,,,,,,,1.214,1,0,0,0,18,1,stimuli/blank.png,human,a,ML07SE,2023-08-28_10h58.28.086,openIAT,2023.1.3,MacIntel,250,
,,,,,,l,1,0.77,,,,,,,,,0.77,1,0,1,1,17,1,stimuli/blank.png,eitel,l,ML07SE,2023-08-28_10h58.28.086,openIAT,2023.1.3,MacIntel,250,
,,,,,,l,1,0.68,,,,,,,,,0.68,1,0,2,2,1,1,stimuli/blank.png,brutal,l,ML07SE,2023-08-28_10h58.28.086,openIAT,2023.1.3,MacIntel,250,
,,,,,,a,1,0.533,,,,,,,,,0.533,1,0,3,3,10,1,stimuli/blank.png,aktiv,a,ML07SE,2023-08-28_10h58.28.086,openIAT,2023.1.3,MacIntel,250,
,,,,,,a,1,0.693,,,,,,,,,0.693,1,0,4,4,8,1,stimuli/blank.png,human,a,ML07SE,2023-08-28_10h58.28.086,openIAT,2023.1.3,MacIntel,250,
,,,,,,a,1,0.623,,,,,,,,,0.623,1,0,5,5,14,1,stimuli/blank.png,gerecht,a,ML07SE,2023-08-28_10h58.28.086,openIAT,2023.1.3,MacIntel,250,
,,,,,,a,1,0.502,,,,,,,,,0.502,1,0,6,6,0,1,stimuli/blank.png,aktiv,a,ML07SE,2023-08-28_10h58.28.086,openIAT,2023.1.3,MacIntel,250,
,,,,,,l,1,0.505,,,,,,,,,0.505,1,0,7,7,9,1,stimuli/blank.png,lustlos,l,ML07SE,2023-08-28_10h58.28.086,openIAT,2023.1.3,MacIntel,250,
,,,,,,l,1,0.456,,,,,,,,,0.456,1,0,8,8,19,1,stimuli/blank.png,lustlos,l,ML07SE,2023-08-28_10h58.28.086,openIAT,2023.1.3,MacIntel,250,
,,,,,,a,1,0.484,,,,,,,,,0.484,1,0,9,9,4,1,stimuli/blank.png,gerecht,a,ML07SE,2023-08-28_10h58.28.086,openIAT,2023.1.3,MacIntel,250,
,,,,,,l,0,0.489,,,,,,,,,0.489,0,0,10,10,16,1,stimuli/blank.png,begabt,a,ML07SE,2023-08-28_10h58.28.086,openIAT,2023.1.3,MacIntel,250,
,,,,,,l,1,0.571,,,,,,,,,0.571,1,0,11,11,3,1,stimuli/blank.png,verlogen,l,ML07SE,2023-08-28_10h58.28.086,openIAT,2023.1.3,MacIntel,250,
,,,,,,l,1,0.824,,,,,,,,,0.824,1,0,12,12,13,1,stimuli/blank.png,verlogen,l,ML07SE,2023-08-28_10h58.28.086,openIAT,2023.1.3,MacIntel,250,
,,,,,,l,1,0.645,,,,,,,,,0.645,1,0,13,13,15,1,stimuli/blank.png,träge,l,ML07SE,2023-08-28_10h58.28.086,openIAT,2023.1.3,MacIntel,250,
,,,,,,a,1,0.507,,,,,,,,,0.507,1,0,14,14,6,1,stimuli/blank.png,begabt,a,ML07SE,2023-08-28_10h58.28.086,openIAT,2023.1.3,MacIntel,250,
,,,,,,l,1,0.59,,,,,,,,,0.59,1,0,15,15,11,1,stimuli/blank.png,brutal,l,ML07SE,2023-08-28_10h58.28.086,openIAT,2023.1.3,MacIntel,250,
,,,,,,a,0,0.488,,,,,,,,,0.488,0,0,16,16,7,1,stimuli/blank.png,eitel,l,ML07SE,2023-08-28_10h58.28.086,openIAT,2023.1.3,MacIntel,250,
,,,,,,l,1,0.78,,,,,,,,,0.78,1,0,17,17,5,1,stimuli/blank.png,träge,l,ML07SE,2023-08-28_10h58.28.086,openIAT,2023.1.3,MacIntel,250,
,,,,,,a,1,0.516,,,,,,,,,0.516,1,0,18,18,12,1,stimuli/blank.png,fröhlich,a,ML07SE,2023-08-28_10h58.28.086,openIAT,2023.1.3,MacIntel,250,
,,,,,,a,1,0.461,,,,,,,,,0.461,1,0,19,19,2,1,stimuli/blank.png,fröhlich,a,ML07SE,2023-08-28_10h58.28.086,openIAT,2023.1.3,MacIntel,250,
,,,,,,l,1,0.7,,,,,,,,,0.7,1,0,0,0,14,1,stimuli/blank.png,jene,l,ML07SE,2023-08-28_10h58.28.086,openIAT,2023.1.3,MacIntel,250,
,,,,,,l,1,0.611,,,,,,,,,0.611,1,0,1,1,6,1,stimuli/blank.png,euch,l,ML07SE,2023-08-28_10h58.28.086,openIAT,2023.1.3,MacIntel,250,
,,,,,,l,1,0.463,,,,,,,,,0.463,1,0,2,2,10,1,stimuli/blank.png,andere,l,ML07SE,2023-08-28_10h58.28.086,openIAT,2023.1.3,MacIntel,250,
,,,,,,l,1,0.536,,,,,,,,,0.536,1,0,3,3,8,1,stimuli/blank.png,eure,l,ML07SE,2023-08-28_10h58.28.086,openIAT,2023.1.3,MacIntel,250,
,,,,,,l,1,0.447,,,,,,,,,0.447,1,0,4,4,16,1,stimuli/blank.png,euch,l,ML07SE,2023-08-28_10h58.28.086,openIAT,2023.1.3,MacIntel,250,
,,,,,,a,1,0.365,,,,,,,,,0.365,1,0,5,5,1,1,stimuli/blank.png,ich,a,ML07SE,2023-08-28_10h58.28.086,openIAT,2023.1.3,MacIntel,250,
,,,,,,a,1,0.437,,,,,,,,,0.437,1,0,6,6,19,1,stimuli/blank.png,selbst,a,ML07SE,2023-08-28_10h58.28.086,openIAT,2023.1.3,MacIntel,250,
,,,,,,l,1,0.447,,,,,,,,,0.447,1,0,7,7,0,1,stimuli/blank.png,andere,l,ML07SE,2023-08-28_10h58.28.086,openIAT,2023.1.3,MacIntel,250,
,,,,,,l,0,0.48,,,,,,,,,0.48,0,0,8,8,13,1,stimuli/blank.png,mir,a,ML07SE,2023-08-28_10h58.28.086,openIAT,2023.1.3,MacIntel,250,
,,,,,,l,1,0.749,,,,,,,,,0.749,1,0,9,9,2,1,stimuli/blank.png,ihr,l,ML07SE,2023-08-28_10h58.28.086,openIAT,2023.1.3,MacIntel,250,
,,,,,,a,1,0.735,,,,,,,,,0.735,1,0,10,10,3,1,stimuli/blank.png,mir,a,ML07SE,2023-08-28_10h58.28.086,openIAT,2023.1.3,MacIntel,250,
,,,,,,l,0,0.65,,,,,,,,,0.65,0,0,11,11,7,1,stimuli/blank.png,eigene,a,ML07SE,2023-08-28_10h58.28.086,openIAT,2023.1.3,MacIntel,250,
,,,,,,a,1,0.831,,,,,,,,,0.831,1,0,12,12,11,1,stimuli/blank.png,ich,a,ML07SE,2023-08-28_10h58.28.086,openIAT,2023.1.3,MacIntel,250,
,,,,,,a,1,0.511,,,,,,,,,0.511,1,0,13,13,9,1,stimuli/blank.png,selbst,a,ML07SE,2023-08-28_10h58.28.086,openIAT,2023.1.3,MacIntel,250,
,,,,,,a,1,0.54,,,,,,,,,0.54,1,0,14,14,17,1,stimuli/blank.png,eigene,a,ML07SE,2023-08-28_10h58.28.086,openIAT,2023.1.3,MacIntel,250,
,,,,,,a,1,0.393,,,,,,,,,0.393,1,0,15,15,15,1,stimuli/blank.png,meine,a,ML07SE,2023-08-28_10h58.28.086,openIAT,2023.1.3,MacIntel,250,
,,,,,,a,1,0.475,,,,,,,,,0.475,1,0,16,16,5,1,stimuli/blank.png,meine,a,ML07SE,2023-08-28_10h58.28.086,openIAT,2023.1.3,MacIntel,250,
,,,,,,l,1,0.506,,,,,,,,,0.506,1,0,17,17,4,1,stimuli/blank.png,jene,l,ML07SE,2023-08-28_10h58.28.086,openIAT,2023.1.3,MacIntel,250,
,,,,,,l,1,0.969,,,,,,,,,0.969,1,0,18,18,18,1,stimuli/blank.png,eure,l,ML07SE,2023-08-28_10h58.28.086,openIAT,2023.1.3,MacIntel,250,
,,,,,,l,1,0.672,,,,,,,,,0.672,1,0,19,19,12,1,stimuli/blank.png,ihr,l,ML07SE,2023-08-28_10h58.28.086,openIAT,2023.1.3,MacIntel,250,
,,,,,,a,1,0.804,,,,,,,,,0.804,1,0,0,0,16,1,stimuli/blank.png,begabt,a,ML07SE,2023-08-28_10h58.28.086,openIAT,2023.1.3,MacIntel,250,
,,,,,,l,1,0.65,,,,,,,,,0.65,1,0,1,1,11,1,stimuli/blank.png,brutal,l,ML07SE,2023-08-28_10h58.28.086,openIAT,2023.1.3,MacIntel,250,
,,,,,,l,1,0.603,,,,,,,,,0.603,1,0,2,2,2,1,stimuli/blank.png,ihr,l,ML07SE,2023-08-28_10h58.28.086,openIAT,2023.1.3,MacIntel,250,
,,,,,,a,1,0.537,,,,,,,,,0.537,1,0,3,3,12,1,stimuli/blank.png,fröhlich,a,ML07SE,2023-08-28_10h58.28.086,openIAT,2023.1.3,MacIntel,250,
,,,,,,a,1,0.494,,,,,,,,,0.494,1,0,4,4,3,1,stimuli/blank.png,mir,a,ML07SE,2023-08-28_10h58.28.086,openIAT,2023.1.3,MacIntel,250,
,,,,,,a,1,0.551,,,,,,,,,0.551,1,0,5,5,14,1,stimuli/blank.png,gerecht,a,ML07SE,2023-08-28_10h58.28.086,openIAT,2023.1.3,MacIntel,250,
,,,,,,a,1,0.768,,,,,,,,,0.768,1,0,6,6,18,1,stimuli/blank.png,human,a,ML07SE,2023-08-28_10h58.28.086,openIAT,2023.1.3,MacIntel,250,
,,,,,,l,1,0.61,,,,,,,,,0.61,1,0,7,7,6,1,stimuli/blank.png,euch,l,ML07SE,2023-08-28_10h58.28.086,openIAT,2023.1.3,MacIntel,250,
,,,,,,a,1,0.614,,,,,,,,,0.614,1,0,8,8,7,1,stimuli/blank.png,eigene,a,ML07SE,2023-08-28_10h58.28.086,openIAT,2023.1.3,MacIntel,250,
,,,,,,l,1,0.503,,,,,,,,,0.503,1,0,9,9,13,1,stimuli/blank.png,verlogen,l,ML07SE,2023-08-28_10h58.28.086,openIAT,2023.1.3,MacIntel,250,
,,,,,,l,1,0.673,,,,,,,,,0.673,1,0,10,10,0,1,stimuli/blank.png,andere,l,ML07SE,2023-08-28_10h58.28.086,openIAT,2023.1.3,MacIntel,250,
,,,,,,l,1,0.797,,,,,,,,,0.797,1,0,11,11,8,1,stimuli/blank.png,eure,l,ML07SE,2023-08-28_10h58.28.086,openIAT,2023.1.3,MacIntel,250,
,,,,,,a,1,0.471,,,,,,,,,0.471,1,0,12,12,9,1,stimuli/blank.png,selbst,a,ML07SE,2023-08-28_10h58.28.086,openIAT,2023.1.3,MacIntel,250,
,,,,,,l,1,0.64,,,,,,,,,0.64,1,0,13,13,4,1,stimuli/blank.png,jene,l,ML07SE,2023-08-28_10h58.28.086,openIAT,2023.1.3,MacIntel,250,
,,,,,,l,1,0.62,,,,,,,,,0.62,1,0,14,14,15,1,stimuli/blank.png,träge,l,ML07SE,2023-08-28_10h58.28.086,openIAT,2023.1.3,MacIntel,250,
,,,,,,a,1,0.525,,,,,,,,,0.525,1,0,15,15,5,1,stimuli/blank.png,meine,a,ML07SE,2023-08-28_10h58.28.086,openIAT,2023.1.3,MacIntel,250,
,,,,,,a,1,0.487,,,,,,,,,0.487,1,0,16,16,1,1,stimuli/blank.png,ich,a,ML07SE,2023-08-28_10h58.28.086,openIAT,2023.1.3,MacIntel,250,
,,,,,,l,1,0.566,,,,,,,,,0.566,1,0,17,17,19,1,stimuli/blank.png,lustlos,l,ML07SE,2023-08-28_10h58.28.086,openIAT,2023.1.3,MacIntel,250,
,,,,,,l,1,0.643,,,,,,,,,0.643,1,0,18,18,17,1,stimuli/blank.png,eitel,l,ML07SE,2023-08-28_10h58.28.086,openIAT,2023.1.3,MacIntel,250,
,,,,,,a,1,0.628,,,,,,,,,0.628,1,0,19,19,10,1,stimuli/blank.png,aktiv,a,ML07SE,2023-08-28_10h58.28.086,openIAT,2023.1.3,MacIntel,250,
,,,,,,a,1,0.665,,,,,,,,,0.665,1,0,0,0,14,1,stimuli/blank.png,gerecht,a,ML07SE,2023-08-28_10h58.28.086,openIAT,2023.1.3,MacIntel,250,
,,,,,,a,1,0.627,,,,,,,,,0.627,1,0,1,1,18,1,stimuli/blank.png,human,a,ML07SE,2023-08-28_10h58.28.086,openIAT,2023.1.3,MacIntel,250,
,,,,,,a,1,0.383,,,,,,,,,0.383,1,0,2,2,3,1,stimuli/blank.png,mir,a,ML07SE,2023-08-28_10h58.28.086,openIAT,2023.1.3,MacIntel,250,
,,,,,,a,0,0.469,,,,,,,,,0.469,0,0,3,3,37,1,stimuli/blank.png,eitel,l,ML07SE,2023-08-28_10h58.28.086,openIAT,2023.1.3,MacIntel,250,
,,,,,,a,1,0.629,,,,,,,,,0.629,1,0,4,4,29,1,stimuli/blank.png,selbst,a,ML07SE,2023-08-28_10h58.28.086,openIAT,2023.1.3,MacIntel,250,
,,,,,,l,1,1.142,,,,,,,,,1.142,1,0,5,5,35,1,stimuli/blank.png,träge,l,ML07SE,2023-08-28_10h58.28.086,openIAT,2023.1.3,MacIntel,250,
,,,,,,a,1,0.56,,,,,,,,,0.56,1,0,6,6,5,1,stimuli/blank.png,meine,a,ML07SE,2023-08-28_10h58.28.086,openIAT,2023.1.3,MacIntel,250,
,,,,,,a,1,0.474,,,,,,,,,0.474,1,0,7,7,1,1,stimuli/blank.png,ich,a,ML07SE,2023-08-28_10h58.28.086,openIAT,2023.1.3,MacIntel,250,
,,,,,,l,1,0.658,,,,,,,,,0.658,1,0,8,8,8,1,stimuli/blank.png,eure,l,ML07SE,2023-08-28_10h58.28.086,openIAT,2023.1.3,MacIntel,250,
,,,,,,a,1,0.708,,,,,,,,,0.708,1,0,9,9,27,1,stimuli/blank.png,eigene,a,ML07SE,2023-08-28_10h58.28.086,openIAT,2023.1.3,MacIntel,250,
,,,,,,a,1,0.466,,,,,,,,,0.466,1,0,10,10,7,1,stimuli/blank.png,eigene,a,ML07SE,2023-08-28_10h58.28.086,openIAT,2023.1.3,MacIntel,250,
,,,,,,l,1,0.736,,,,,,,,,0.736,1,0,11,11,4,1,stimuli/blank.png,jene,l,ML07SE,2023-08-28_10h58.28.086,openIAT,2023.1.3,MacIntel,250,
,,,,,,a,0,0.51,,,,,,,,,0.51,0,0,12,12,2,1,stimuli/blank.png,ihr,l,ML07SE,2023-08-28_10h58.28.086,openIAT,2023.1.3,MacIntel,250,
,,,,,,l,1,0.597,,,,,,,,,0.597,1,0,13,13,22,1,stimuli/blank.png,ihr,l,ML07SE,2023-08-28_10h58.28.086,openIAT,2023.1.3,MacIntel,250,
,,,,,,a,1,0.447,,,,,,,,,0.447,1,0,14,14,9,1,stimuli/blank.png,selbst,a,ML07SE,2023-08-28_10h58.28.086,openIAT,2023.1.3,MacIntel,250,
,,,,,,l,1,0.816,,,,,,,,,0.816,1,0,15,15,0,1,stimuli/blank.png,andere,l,ML07SE,2023-08-28_10h58.28.086,openIAT,2023.1.3,MacIntel,250,
,,,,,,a,1,1.462,,,,,,,,,1.462,1,0,16,16,25,1,stimuli/blank.png,meine,a,ML07SE,2023-08-28_10h58.28.086,openIAT,2023.1.3,MacIntel,250,
,,,,,,l,1,0.638,,,,,,,,,0.638,1,0,17,17,13,1,stimuli/blank.png,verlogen,l,ML07SE,2023-08-28_10h58.28.086,openIAT,2023.1.3,MacIntel,250,
,,,,,,a,1,0.751,,,,,,,,,0.751,1,0,18,18,36,1,stimuli/blank.png,begabt,a,ML07SE,2023-08-28_10h58.28.086,openIAT,2023.1.3,MacIntel,250,
,,,,,,a,1,0.469,,,,,,,,,0.469,1,0,19,19,10,1,stimuli/blank.png,aktiv,a,ML07SE,2023-08-28_10h58.28.086,openIAT,2023.1.3,MacIntel,250,
,,,,,,l,1,0.576,,,,,,,,,0.576,1,0,20,20,28,1,stimuli/blank.png,eure,l,ML07SE,2023-08-28_10h58.28.086,openIAT,2023.1.3,MacIntel,250,
,,,,,,a,1,0.627,,,,,,,,,0.627,1,0,21,21,30,1,stimuli/blank.png,aktiv,a,ML07SE,2023-08-28_10h58.28.086,openIAT,2023.1.3,MacIntel,250,
,,,,,,a,1,0.56,,,,,,,,,0.56,1,0,22,22,23,1,stimuli/blank.png,mir,a,ML07SE,2023-08-28_10h58.28.086,openIAT,2023.1.3,MacIntel,250,
,,,,,,l,1,0.618,,,,,,,,,0.618,1,0,23,23,24,1,stimuli/blank.png,jene,l,ML07SE,2023-08-28_10h58.28.086,openIAT,2023.1.3,MacIntel,250,
,,,,,,l,1,0.751,,,,,,,,,0.751,1,0,24,24,15,1,stimuli/blank.png,träge,l,ML07SE,2023-08-28_10h58.28.086,openIAT,2023.1.3,MacIntel,250,
,,,,,,a,1,0.771,,,,,,,,,0.771,1,0,25,25,38,1,stimuli/blank.png,human,a,ML07SE,2023-08-28_10h58.28.086,openIAT,2023.1.3,MacIntel,250,
,,,,,,l,1,0.537,,,,,,,,,0.537,1,0,26,26,33,1,stimuli/blank.png,verlogen,l,ML07SE,2023-08-28_10h58.28.086,openIAT,2023.1.3,MacIntel,250,
,,,,,,l,1,0.896,,,,,,,,,0.896,1,0,27,27,17,1,stimuli/blank.png,eitel,l,ML07SE,2023-08-28_10h58.28.086,openIAT,2023.1.3,MacIntel,250,
,,,,,,a,1,0.595,,,,,,,,,0.595,1,0,28,28,34,1,stimuli/blank.png,gerecht,a,ML07SE,2023-08-28_10h58.28.086,openIAT,2023.1.3,MacIntel,250,
,,,,,,l,1,0.751,,,,,,,,,0.751,1,0,29,29,26,1,stimuli/blank.png,euch,l,ML07SE,2023-08-28_10h58.28.086,openIAT,2023.1.3,MacIntel,250,
,,,,,,a,1,0.596,,,,,,,,,0.596,1,0,30,30,12,1,stimuli/blank.png,fröhlich,a,ML07SE,2023-08-28_10h58.28.086,openIAT,2023.1.3,MacIntel,250,
,,,,,,a,1,0.45,,,,,,,,,0.45,1,0,31,31,21,1,stimuli/blank.png,ich,a,ML07SE,2023-08-28_10h58.28.086,openIAT,2023.1.3,MacIntel,250,
,,,,,,a,1,0.6,,,,,,,,,0.6,1,0,32,32,16,1,stimuli/blank.png,begabt,a,ML07SE,2023-08-28_10h58.28.086,openIAT,2023.1.3,MacIntel,250,
,,,,,,l,1,0.611,,,,,,,,,0.611,1,0,33,33,31,1,stimuli/blank.png,brutal,l,ML07SE,2023-08-28_10h58.28.086,openIAT,2023.1.3,MacIntel,250,
,,,,,,a,1,0.594,,,,,,,,,0.594,1,0,34,34,32,1,stimuli/blank.png,fröhlich,a,ML07SE,2023-08-28_10h58.28.086,openIAT,2023.1.3,MacIntel,250,
,,,,,,l,1,0.711,,,,,,,,,0.711,1,0,35,35,39,1,stimuli/blank.png,lustlos,l,ML07SE,2023-08-28_10h58.28.086,openIAT,2023.1.3,MacIntel,250,
,,,,,,l,1,0.558,,,,,,,,,0.558,1,0,36,36,11,1,stimuli/blank.png,brutal,l,ML07SE,2023-08-28_10h58.28.086,openIAT,2023.1.3,MacIntel,250,
,,,,,,l,1,0.619,,,,,,,,,0.619,1,0,37,37,19,1,stimuli/blank.png,lustlos,l,ML07SE,2023-08-28_10h58.28.086,openIAT,2023.1.3,MacIntel,250,
,,,,,,l,1,0.572,,,,,,,,,0.572,1,0,38,38,6,1,stimuli/blank.png,euch,l,ML07SE,2023-08-28_10h58.28.086,openIAT,2023.1.3,MacIntel,250,
,,,,,,l,1,0.542,,,,,,,,,0.542,1,0,39,39,20,1,stimuli/blank.png,andere,l,ML07SE,2023-08-28_10h58.28.086,openIAT,2023.1.3,MacIntel,250,
,,,,,,a,1,0.77,,,,,,,,,0.77,1,0,0,0,18,1,stimuli/blank.png,eure,a,ML07SE,2023-08-28_10h58.28.086,openIAT,2023.1.3,MacIntel,250,
,,,,,,a,1,0.402,,,,,,,,,0.402,1,0,1,1,16,1,stimuli/blank.png,euch,a,ML07SE,2023-08-28_10h58.28.086,openIAT,2023.1.3,MacIntel,250,
,,,,,,a,0,0.471,,,,,,,,,0.471,0,0,2,2,7,1,stimuli/blank.png,eigene,l,ML07SE,2023-08-28_10h58.28.086,openIAT,2023.1.3,MacIntel,250,
,,,,,,a,1,0.609,,,,,,,,,0.609,1,0,3,3,0,1,stimuli/blank.png,andere,a,ML07SE,2023-08-28_10h58.28.086,openIAT,2023.1.3,MacIntel,250,
,,,,,,a,1,0.593,,,,,,,,,0.593,1,0,4,4,14,1,stimuli/blank.png,jene,a,ML07SE,2023-08-28_10h58.28.086,openIAT,2023.1.3,MacIntel,250,
,,,,,,l,1,0.502,,,,,,,,,0.502,1,0,5,5,15,1,stimuli/blank.png,meine,l,ML07SE,2023-08-28_10h58.28.086,openIAT,2023.1.3,MacIntel,250,
,,,,,,a,1,0.584,,,,,,,,,0.584,1,0,6,6,10,1,stimuli/blank.png,andere,a,ML07SE,2023-08-28_10h58.28.086,openIAT,2023.1.3,MacIntel,250,
,,,,,,l,1,0.6,,,,,,,,,0.6,1,0,7,7,19,1,stimuli/blank.png,selbst,l,ML07SE,2023-08-28_10h58.28.086,openIAT,2023.1.3,MacIntel,250,
,,,,,,l,1,0.575,,,,,,,,,0.575,1,0,8,8,11,1,stimuli/blank.png,ich,l,ML07SE,2023-08-28_10h58.28.086,openIAT,2023.1.3,MacIntel,250,
,,,,,,a,1,0.493,,,,,,,,,0.493,1,0,9,9,4,1,stimuli/blank.png,jene,a,ML07SE,2023-08-28_10h58.28.086,openIAT,2023.1.3,MacIntel,250,
,,,,,,l,1,0.578,,,,,,,,,0.578,1,0,10,10,1,1,stimuli/blank.png,ich,l,ML07SE,2023-08-28_10h58.28.086,openIAT,2023.1.3,MacIntel,250,
,,,,,,l,1,0.514,,,,,,,,,0.514,1,0,11,11,5,1,stimuli/blank.png,meine,l,ML07SE,2023-08-28_10h58.28.086,openIAT,2023.1.3,MacIntel,250,
,,,,,,l,1,0.367,,,,,,,,,0.367,1,0,12,12,3,1,stimuli/blank.png,mir,l,ML07SE,2023-08-28_10h58.28.086,openIAT,2023.1.3,MacIntel,250,
,,,,,,a,1,0.642,,,,,,,,,0.642,1,0,13,13,2,1,stimuli/blank.png,ihr,a,ML07SE,2023-08-28_10h58.28.086,openIAT,2023.1.3,MacIntel,250,
,,,,,,a,1,0.463,,,,,,,,,0.463,1,0,14,14,12,1,stimuli/blank.png,ihr,a,ML07SE,2023-08-28_10h58.28.086,openIAT,2023.1.3,MacIntel,250,
,,,,,,l,1,0.527,,,,,,,,,0.527,1,0,15,15,17,1,stimuli/blank.png,eigene,l,ML07SE,2023-08-28_10h58.28.086,openIAT,2023.1.3,MacIntel,250,
,,,,,,l,1,0.385,,,,,,,,,0.385,1,0,16,16,13,1,stimuli/blank.png,mir,l,ML07SE,2023-08-28_10h58.28.086,openIAT,2023.1.3,MacIntel,250,
,,,,,,a,1,0.774,,,,,,,,,0.774,1,0,17,17,6,1,stimuli/blank.png,euch,a,ML07SE,2023-08-28_10h58.28.086,openIAT,2023.1.3,MacIntel,250,
,,,,,,a,1,0.76,,,,,,,,,0.76,1,0,18,18,8,1,stimuli/blank.png,eure,a,ML07SE,2023-08-28_10h58.28.086,openIAT,2023.1.3,MacIntel,250,
,,,,,,l,1,0.459,,,,,,,,,0.459,1,0,19,19,9,1,stimuli/blank.png,selbst,l,ML07SE,2023-08-28_10h58.28.086,openIAT,2023.1.3,MacIntel,250,
,,,,,,l,1,0.618,,,,,,,,,0.618,1,0,0,0,5,1,stimuli/blank.png,meine,l,ML07SE,2023-08-28_10h58.28.086,openIAT,2023.1.3,MacIntel,250,
,,,,,,l,1,0.681,,,,,,,,,0.681,1,0,1,1,17,1,stimuli/blank.png,eitel,l,ML07SE,2023-08-28_10h58.28.086,openIAT,2023.1.3,MacIntel,250,
,,,,,,a,1,0.617,,,,,,,,,0.617,1,0,2,2,8,1,stimuli/blank.png,eure,a,ML07SE,2023-08-28_10h58.28.086,openIAT,2023.1.3,MacIntel,250,
,,,,,,l,1,0.555,,,,,,,,,0.555,1,0,3,3,1,1,stimuli/blank.png,ich,l,ML07SE,2023-08-28_10h58.28.086,openIAT,2023.1.3,MacIntel,250,
,,,,,,a,1,0.822,,,,,,,,,0.822,1,0,4,4,16,1,stimuli/blank.png,begabt,a,ML07SE,2023-08-28_10h58.28.086,openIAT,2023.1.3,MacIntel,250,
,,,,,,a,1,0.734,,,,,,,,,0.734,1,0,5,5,10,1,stimuli/blank.png,aktiv,a,ML07SE,2023-08-28_10h58.28.086,openIAT,2023.1.3,MacIntel,250,
,,,,,,a,1,0.815,,,,,,,,,0.815,1,0,6,6,18,1,stimuli/blank.png,human,a,ML07SE,2023-08-28_10h58.28.086,openIAT,2023.1.3,MacIntel,250,
,,,,,,a,0,0.688,,,,,,,,,0.688,0,0,7,7,15,1,stimuli/blank.png,träge,l,ML07SE,2023-08-28_10h58.28.086,openIAT,2023.1.3,MacIntel,250,
,,,,,,l,1,0.756,,,,,,,,,0.756,1,0,8,8,7,1,stimuli/blank.png,eigene,l,ML07SE,2023-08-28_10h58.28.086,openIAT,2023.1.3,MacIntel,250,
,,,,,,l,1,0.647,,,,,,,,,0.647,1,0,9,9,11,1,stimuli/blank.png,brutal,l,ML07SE,2023-08-28_10h58.28.086,openIAT,2023.1.3,MacIntel,250,
,,,,,,a,1,0.684,,,,,,,,,0.684,1,0,10,10,12,1,stimuli/blank.png,fröhlich,a,ML07SE,2023-08-28_10h58.28.086,openIAT,2023.1.3,MacIntel,250,
,,,,,,l,1,0.775,,,,,,,,,0.775,1,0,11,11,9,1,stimuli/blank.png,selbst,l,ML07SE,2023-08-28_10h58.28.086,openIAT,2023.1.3,MacIntel,250,
,,,,,,a,0,1.05,,,,,,,,,1.05,0,0,12,12,19,1,stimuli/blank.png,lustlos,l,ML07SE,2023-08-28_10h58.28.086,openIAT,2023.1.3,MacIntel,250,
,,,,,,a,1,1.152,,,,,,,,,1.152,1,0,13,13,2,1,stimuli/blank.png,ihr,a,ML07SE,2023-08-28_10h58.28.086,openIAT,2023.1.3,MacIntel,250,
,,,,,,a,1,1.03,,,,,,,,,1.03,1,0,14,14,4,1,stimuli/blank.png,jene,a,ML07SE,2023-08-28_10h58.28.086,openIAT,2023.1.3,MacIntel,250,
,,,,,,l,1,1.233,,,,,,,,,1.233,1,0,15,15,13,1,stimuli/blank.png,verlogen,l,ML07SE,2023-08-28_10h58.28.086,openIAT,2023.1.3,MacIntel,250,
,,,,,,a,1,0.691,,,,,,,,,0.691,1,0,16,16,6,1,stimuli/blank.png,euch,a,ML07SE,2023-08-28_10h58.28.086,openIAT,2023.1.3,MacIntel,250,
,,,,,,a,1,1.692,,,,,,,,,1.692,1,0,17,17,14,1,stimuli/blank.png,gerecht,a,ML07SE,2023-08-28_10h58.28.086,openIAT,2023.1.3,MacIntel,250,
,,,,,,l,1,0.837,,,,,,,,,0.837,1,0,18,18,3,1,stimuli/blank.png,mir,l,ML07SE,2023-08-28_10h58.28.086,openIAT,2023.1.3,MacIntel,250,
,,,,,,a,1,0.678,,,,,,,,,0.678,1,0,19,19,0,1,stimuli/blank.png,andere,a,ML07SE,2023-08-28_10h58.28.086,openIAT,2023.1.3,MacIntel,250,
,,,,,,a,1,0.918,,,,,,,,,0.918,1,0,0,0,32,1,stimuli/blank.png,fröhlich,a,ML07SE,2023-08-28_10h58.28.086,openIAT,2023.1.3,MacIntel,250,
,,,,,,l,1,1.002,,,,,,,,,1.002,1,0,1,1,15,1,stimuli/blank.png,träge,l,ML07SE,2023-08-28_10h58.28.086,openIAT,2023.1.3,MacIntel,250,
,,,,,,l,1,1.283,,,,,,,,,1.283,1,0,2,2,11,1,stimuli/blank.png,brutal,l,ML07SE,2023-08-28_10h58.28.086,openIAT,2023.1.3,MacIntel,250,
,,,,,,l,1,0.659,,,,,,,,,0.659,1,0,3,3,3,1,stimuli/blank.png,mir,l,ML07SE,2023-08-28_10h58.28.086,openIAT,2023.1.3,MacIntel,250,
,,,,,,l,1,0.516,,,,,,,,,0.516,1,0,4,4,31,1,stimuli/blank.png,brutal,l,ML07SE,2023-08-28_10h58.28.086,openIAT,2023.1.3,MacIntel,250,
,,,,,,a,1,0.659,,,,,,,,,0.659,1,0,5,5,10,1,stimuli/blank.png,aktiv,a,ML07SE,2023-08-28_10h58.28.086,openIAT,2023.1.3,MacIntel,250,
,,,,,,l,1,0.565,,,,,,,,,0.565,1,0,6,6,25,1,stimuli/blank.png,meine,l,ML07SE,2023-08-28_10h58.28.086,openIAT,2023.1.3,MacIntel,250,
,,,,,,l,1,0.669,,,,,,,,,0.669,1,0,7,7,5,1,stimuli/blank.png,meine,l,ML07SE,2023-08-28_10h58.28.086,openIAT,2023.1.3,MacIntel,250,
,,,,,,a,1,0.629,,,,,,,,,0.629,1,0,8,8,34,1,stimuli/blank.png,gerecht,a,ML07SE,2023-08-28_10h58.28.086,openIAT,2023.1.3,MacIntel,250,
,,,,,,a,1,1.277,,,,,,,,,1.277,1,0,9,9,36,1,stimuli/blank.png,begabt,a,ML07SE,2023-08-28_10h58.28.086,openIAT,2023.1.3,MacIntel,250,
,,,,,,l,1,1.148,,,,,,,,,1.148,1,0,10,10,37,1,stimuli/blank.png,eitel,l,ML07SE,2023-08-28_10h58.28.086,openIAT,2023.1.3,MacIntel,250,
,,,,,,a,0,0.648,,,,,,,,,0.648,0,0,11,11,39,1,stimuli/blank.png,lustlos,l,ML07SE,2023-08-28_10h58.28.086,openIAT,2023.1.3,MacIntel,250,
,,,,,,a,1,1.502,,,,,,,,,1.502,1,0,12,12,6,1,stimuli/blank.png,euch,a,ML07SE,2023-08-28_10h58.28.086,openIAT,2023.1.3,MacIntel,250,
,,,,,,a,1,0.805,,,,,,,,,0.805,1,0,13,13,0,1,stimuli/blank.png,andere,a,ML07SE,2023-08-28_10h58.28.086,openIAT,2023.1.3,MacIntel,250,
,,,,,,l,1,0.809,,,,,,,,,0.809,1,0,14,14,1,1,stimuli/blank.png,ich,l,ML07SE,2023-08-28_10h58.28.086,openIAT,2023.1.3,MacIntel,250,
,,,,,,l,1,0.629,,,,,,,,,0.629,1,0,15,15,33,1,stimuli/blank.png,verlogen,l,ML07SE,2023-08-28_10h58.28.086,openIAT,2023.1.3,MacIntel,250,
,,,,,,a,1,1.026,,,,,,,,,1.026,1,0,16,16,14,1,stimuli/blank.png,gerecht,a,ML07SE,2023-08-28_10h58.28.086,openIAT,2023.1.3,MacIntel,250,
,,,,,,l,1,1.52,,,,,,,,,1.52,1,0,17,17,13,1,stimuli/blank.png,verlogen,l,ML07SE,2023-08-28_10h58.28.086,openIAT,2023.1.3,MacIntel,250,
,,,,,,a,1,0.782,,,,,,,,,0.782,1,0,18,18,22,1,stimuli/blank.png,ihr,a,ML07SE,2023-08-28_10h58.28.086,openIAT,2023.1.3,MacIntel,250,
,,,,,,a,1,0.748,,,,,,,,,0.748,1,0,19,19,4,1,stimuli/blank.png,jene,a,ML07SE,2023-08-28_10h58.28.086,openIAT,2023.1.3,MacIntel,250,
,,,,,,l,1,0.753,,,,,,,,,0.753,1,0,20,20,29,1,stimuli/blank.png,selbst,l,ML07SE,2023-08-28_10h58.28.086,openIAT,2023.1.3,MacIntel,250,
,,,,,,a,1,0.737,,,,,,,,,0.737,1,0,21,21,28,1,stimuli/blank.png,eure,a,ML07SE,2023-08-28_10h58.28.086,openIAT,2023.1.3,MacIntel,250,
,,,,,,l,1,1.16,,,,,,,,,1.16,1,0,22,22,19,1,stimuli/blank.png,lustlos,l,ML07SE,2023-08-28_10h58.28.086,openIAT,2023.1.3,MacIntel,250,
,,,,,,a,1,1.001,,,,,,,,,1.001,1,0,23,23,2,1,stimuli/blank.png,ihr,a,ML07SE,2023-08-28_10h58.28.086,openIAT,2023.1.3,MacIntel,250,
,,,,,,l,1,0.472,,,,,,,,,0.472,1,0,24,24,23,1,stimuli/blank.png,mir,l,ML07SE,2023-08-28_10h58.28.086,openIAT,2023.1.3,MacIntel,250,
,,,,,,l,1,0.879,,,,,,,,,0.879,1,0,25,25,17,1,stimuli/blank.png,eitel,l,ML07SE,2023-08-28_10h58.28.086,openIAT,2023.1.3,MacIntel,250,
,,,,,,a,0,0.779,,,,,,,,,0.779,0,0,26,26,27,1,stimuli/blank.png,eigene,l,ML07SE,2023-08-28_10h58.28.086,openIAT,2023.1.3,MacIntel,250,
,,,,,,a,1,1.196,,,,,,,,,1.196,1,0,27,27,38,1,stimuli/blank.png,human,a,ML07SE,2023-08-28_10h58.28.086,openIAT,2023.1.3,MacIntel,250,
,,,,,,l,1,1.145,,,,,,,,,1.145,1,0,28,28,35,1,stimuli/blank.png,träge,l,ML07SE,2023-08-28_10h58.28.086,openIAT,2023.1.3,MacIntel,250,
,,,,,,l,1,0.67,,,,,,,,,0.67,1,0,29,29,21,1,stimuli/blank.png,ich,l,ML07SE,2023-08-28_10h58.28.086,openIAT,2023.1.3,MacIntel,250,
,,,,,,a,1,1.363,,,,,,,,,1.363,1,0,30,30,30,1,stimuli/blank.png,aktiv,a,ML07SE,2023-08-28_10h58.28.086,openIAT,2023.1.3,MacIntel,250,
,,,,,,l,1,0.77,,,,,,,,,0.77,1,0,31,31,9,1,stimuli/blank.png,selbst,l,ML07SE,2023-08-28_10h58.28.086,openIAT,2023.1.3,MacIntel,250,
,,,,,,a,1,0.627,,,,,,,,,0.627,1,0,32,32,26,1,stimuli/blank.png,euch,a,ML07SE,2023-08-28_10h58.28.086,openIAT,2023.1.3,MacIntel,250,
,,,,,,l,1,0.813,,,,,,,,,0.813,1,0,33,33,7,1,stimuli/blank.png,eigene,l,ML07SE,2023-08-28_10h58.28.086,openIAT,2023.1.3,MacIntel,250,
,,,,,,a,1,0.82,,,,,,,,,0.82,1,0,34,34,16,1,stimuli/blank.png,begabt,a,ML07SE,2023-08-28_10h58.28.086,openIAT,2023.1.3,MacIntel,250,
,,,,,,a,1,1.248,,,,,,,,,1.248,1,0,35,35,8,1,stimuli/blank.png,eure,a,ML07SE,2023-08-28_10h58.28.086,openIAT,2023.1.3,MacIntel,250,
,,,,,,a,1,0.656,,,,,,,,,0.656,1,0,36,36,20,1,stimuli/blank.png,andere,a,ML07SE,2023-08-28_10h58.28.086,openIAT,2023.1.3,MacIntel,250,
,,,,,,a,1,1.22,,,,,,,,,1.22,1,0,37,37,24,1,stimuli/blank.png,jene,a,ML07SE,2023-08-28_10h58.28.086,openIAT,2023.1.3,MacIntel,250,
,,,,,,a,1,0.468,,,,,,,,,0.468,1,0,38,38,12,1,stimuli/blank.png,fröhlich,a,ML07SE,2023-08-28_10h58.28.086,openIAT,2023.1.3,MacIntel,250,
,,,,,,a,1,0.667,,,,,,,,,0.667,1,0,39,39,18,1,stimuli/blank.png,human,a,ML07SE,2023-08-28_10h58.28.086,openIAT,2023.1.3,MacIntel,250,
,,,,,,,,,,,,,,,,,,,,,,,,,,,ML07SE,2023-08-28_10h58.28.086,openIAT,2023.1.3,MacIntel,250,
