instr_done_touch.x,instr_done_touch.y,instr_done_touch.leftButton,instr_done_touch.midButton,instr_done_touch.rightButton,instr_done_touch.clicked_name,key_resp.keys,key_resp.corr,key_resp.rt,key_resp.duration,touch_resp.x,touch_resp.y,touch_resp.leftButton,touch_resp.midButton,touch_resp.rightButton,touch_resp.time,touch_resp.clicked_name,rt,corr,trials.thisRepN,trials.thisTrialN,trials.thisN,trials.thisIndex,trials.ran,stimImage,stimWord,CorrAns,participant,date,expName,psychopyVersion,OS,frameRate,return_tic
-0.08,-0.386666667,1,0,0,instr_done_button,a,1,1.217,,,,,,,,,1.217,1,0,0,0,2,1,stimuli/blank.png,fröhlich,a,MR03TO,2023-08-05_00h30.37.134,openIAT,2023.1.3,MacIntel,58.82352941,
,,,,,,l,1,0.977,,,,,,,,,0.977,1,0,1,1,11,1,stimuli/blank.png,brutal,l,MR03TO,2023-08-05_00h30.37.134,openIAT,2023.1.3,MacIntel,58.82352941,
,,,,,,a,1,0.998,,,,,,,,,0.998,1,0,2,2,10,1,stimuli/blank.png,aktiv,a,MR03TO,2023-08-05_00h30.37.134,openIAT,2023.1.3,MacIntel,58.82352941,
,,,,,,l,1,1.475,,,,,,,,,1.475,1,0,3,3,19,1,stimuli/blank.png,lustlos,l,MR03TO,2023-08-05_00h30.37.134,openIAT,2023.1.3,MacIntel,58.82352941,
,,,,,,l,1,0.845,,,,,,,,,0.845,1,0,4,4,1,1,stimuli/blank.png,brutal,l,MR03TO,2023-08-05_00h30.37.134,openIAT,2023.1.3,MacIntel,58.82352941,
,,,,,,a,1,0.964,,,,,,,,,0.964,1,0,5,5,16,1,stimuli/blank.png,begabt,a,MR03TO,2023-08-05_00h30.37.134,openIAT,2023.1.3,MacIntel,58.82352941,
,,,,,,a,1,0.795,,,,,,,,,0.795,1,0,6,6,4,1,stimuli/blank.png,gerecht,a,MR03TO,2023-08-05_00h30.37.134,openIAT,2023.1.3,MacIntel,58.82352941,
,,,,,,a,1,0.644,,,,,,,,,0.644,1,0,7,7,0,1,stimuli/blank.png,aktiv,a,MR03TO,2023-08-05_00h30.37.134,openIAT,2023.1.3,MacIntel,58.82352941,
,,,,,,l,1,1.37,,,,,,,,,1.37,1,0,8,8,13,1,stimuli/blank.png,verlogen,l,MR03TO,2023-08-05_00h30.37.134,openIAT,2023.1.3,MacIntel,58.82352941,
,,,,,,a,0,2.476,,,,,,,,,2.476,0,0,9,9,17,1,stimuli/blank.png,eitel,l,MR03TO,2023-08-05_00h30.37.134,openIAT,2023.1.3,MacIntel,58.82352941,
,,,,,,a,1,2.328,,,,,,,,,2.328,1,0,10,10,18,1,stimuli/blank.png,human,a,MR03TO,2023-08-05_00h30.37.134,openIAT,2023.1.3,MacIntel,58.82352941,
,,,,,,a,1,0.72,,,,,,,,,0.72,1,0,11,11,6,1,stimuli/blank.png,begabt,a,MR03TO,2023-08-05_00h30.37.134,openIAT,2023.1.3,MacIntel,58.82352941,
,,,,,,l,1,0.895,,,,,,,,,0.895,1,0,12,12,3,1,stimuli/blank.png,verlogen,l,MR03TO,2023-08-05_00h30.37.134,openIAT,2023.1.3,MacIntel,58.82352941,
,,,,,,a,1,0.842,,,,,,,,,0.842,1,0,13,13,8,1,stimuli/blank.png,human,a,MR03TO,2023-08-05_00h30.37.134,openIAT,2023.1.3,MacIntel,58.82352941,
,,,,,,l,1,0.85,,,,,,,,,0.85,1,0,14,14,5,1,stimuli/blank.png,träge,l,MR03TO,2023-08-05_00h30.37.134,openIAT,2023.1.3,MacIntel,58.82352941,
,,,,,,a,1,0.585,,,,,,,,,0.585,1,0,15,15,12,1,stimuli/blank.png,fröhlich,a,MR03TO,2023-08-05_00h30.37.134,openIAT,2023.1.3,MacIntel,58.82352941,
,,,,,,l,1,0.616,,,,,,,,,0.616,1,0,16,16,9,1,stimuli/blank.png,lustlos,l,MR03TO,2023-08-05_00h30.37.134,openIAT,2023.1.3,MacIntel,58.82352941,
,,,,,,l,1,0.799,,,,,,,,,0.799,1,0,17,17,7,1,stimuli/blank.png,eitel,l,MR03TO,2023-08-05_00h30.37.134,openIAT,2023.1.3,MacIntel,58.82352941,
,,,,,,a,1,1.075,,,,,,,,,1.075,1,0,18,18,14,1,stimuli/blank.png,gerecht,a,MR03TO,2023-08-05_00h30.37.134,openIAT,2023.1.3,MacIntel,58.82352941,
,,,,,,l,1,0.679,,,,,,,,,0.679,1,0,19,19,15,1,stimuli/blank.png,träge,l,MR03TO,2023-08-05_00h30.37.134,openIAT,2023.1.3,MacIntel,58.82352941,
,,,,,,a,1,1.024,,,,,,,,,1.024,1,0,0,0,1,1,stimuli/blank.png,ich,a,MR03TO,2023-08-05_00h30.37.134,openIAT,2023.1.3,MacIntel,58.82352941,
,,,,,,a,1,0.825,,,,,,,,,0.825,1,0,1,1,9,1,stimuli/blank.png,selbst,a,MR03TO,2023-08-05_00h30.37.134,openIAT,2023.1.3,MacIntel,58.82352941,
,,,,,,l,1,0.94,,,,,,,,,0.94,1,0,2,2,0,1,stimuli/blank.png,andere,l,MR03TO,2023-08-05_00h30.37.134,openIAT,2023.1.3,MacIntel,58.82352941,
,,,,,,l,1,0.797,,,,,,,,,0.797,1,0,3,3,6,1,stimuli/blank.png,euch,l,MR03TO,2023-08-05_00h30.37.134,openIAT,2023.1.3,MacIntel,58.82352941,
,,,,,,l,1,0.792,,,,,,,,,0.792,1,0,4,4,12,1,stimuli/blank.png,ihr,l,MR03TO,2023-08-05_00h30.37.134,openIAT,2023.1.3,MacIntel,58.82352941,
,,,,,,l,1,0.693,,,,,,,,,0.693,1,0,5,5,10,1,stimuli/blank.png,andere,l,MR03TO,2023-08-05_00h30.37.134,openIAT,2023.1.3,MacIntel,58.82352941,
,,,,,,a,1,0.628,,,,,,,,,0.628,1,0,6,6,15,1,stimuli/blank.png,meine,a,MR03TO,2023-08-05_00h30.37.134,openIAT,2023.1.3,MacIntel,58.82352941,
,,,,,,a,1,0.613,,,,,,,,,0.613,1,0,7,7,11,1,stimuli/blank.png,ich,a,MR03TO,2023-08-05_00h30.37.134,openIAT,2023.1.3,MacIntel,58.82352941,
,,,,,,l,1,0.78,,,,,,,,,0.78,1,0,8,8,14,1,stimuli/blank.png,jene,l,MR03TO,2023-08-05_00h30.37.134,openIAT,2023.1.3,MacIntel,58.82352941,
,,,,,,a,1,0.63,,,,,,,,,0.63,1,0,9,9,19,1,stimuli/blank.png,selbst,a,MR03TO,2023-08-05_00h30.37.134,openIAT,2023.1.3,MacIntel,58.82352941,
,,,,,,a,1,0.596,,,,,,,,,0.596,1,0,10,10,5,1,stimuli/blank.png,meine,a,MR03TO,2023-08-05_00h30.37.134,openIAT,2023.1.3,MacIntel,58.82352941,
,,,,,,l,1,0.66,,,,,,,,,0.66,1,0,11,11,18,1,stimuli/blank.png,eure,l,MR03TO,2023-08-05_00h30.37.134,openIAT,2023.1.3,MacIntel,58.82352941,
,,,,,,a,1,0.698,,,,,,,,,0.698,1,0,12,12,3,1,stimuli/blank.png,mir,a,MR03TO,2023-08-05_00h30.37.134,openIAT,2023.1.3,MacIntel,58.82352941,
,,,,,,l,1,0.735,,,,,,,,,0.735,1,0,13,13,4,1,stimuli/blank.png,jene,l,MR03TO,2023-08-05_00h30.37.134,openIAT,2023.1.3,MacIntel,58.82352941,
,,,,,,l,1,0.781,,,,,,,,,0.781,1,0,14,14,8,1,stimuli/blank.png,eure,l,MR03TO,2023-08-05_00h30.37.134,openIAT,2023.1.3,MacIntel,58.82352941,
,,,,,,a,1,0.635,,,,,,,,,0.635,1,0,15,15,7,1,stimuli/blank.png,eigene,a,MR03TO,2023-08-05_00h30.37.134,openIAT,2023.1.3,MacIntel,58.82352941,
,,,,,,a,1,0.593,,,,,,,,,0.593,1,0,16,16,13,1,stimuli/blank.png,mir,a,MR03TO,2023-08-05_00h30.37.134,openIAT,2023.1.3,MacIntel,58.82352941,
,,,,,,a,1,0.678,,,,,,,,,0.678,1,0,17,17,17,1,stimuli/blank.png,eigene,a,MR03TO,2023-08-05_00h30.37.134,openIAT,2023.1.3,MacIntel,58.82352941,
,,,,,,a,0,1.027,,,,,,,,,1.027,0,0,18,18,16,1,stimuli/blank.png,euch,l,MR03TO,2023-08-05_00h30.37.134,openIAT,2023.1.3,MacIntel,58.82352941,
,,,,,,l,1,0.629,,,,,,,,,0.629,1,0,19,19,2,1,stimuli/blank.png,ihr,l,MR03TO,2023-08-05_00h30.37.134,openIAT,2023.1.3,MacIntel,58.82352941,
,,,,,,a,1,0.64,,,,,,,,,0.64,1,0,0,0,3,1,stimuli/blank.png,mir,a,MR03TO,2023-08-05_00h30.37.134,openIAT,2023.1.3,MacIntel,58.82352941,
,,,,,,a,1,0.811,,,,,,,,,0.811,1,0,1,1,5,1,stimuli/blank.png,meine,a,MR03TO,2023-08-05_00h30.37.134,openIAT,2023.1.3,MacIntel,58.82352941,
,,,,,,l,1,1.181,,,,,,,,,1.181,1,0,2,2,13,1,stimuli/blank.png,verlogen,l,MR03TO,2023-08-05_00h30.37.134,openIAT,2023.1.3,MacIntel,58.82352941,
,,,,,,a,1,0.731,,,,,,,,,0.731,1,0,3,3,9,1,stimuli/blank.png,selbst,a,MR03TO,2023-08-05_00h30.37.134,openIAT,2023.1.3,MacIntel,58.82352941,
,,,,,,l,1,0.765,,,,,,,,,0.765,1,0,4,4,8,1,stimuli/blank.png,eure,l,MR03TO,2023-08-05_00h30.37.134,openIAT,2023.1.3,MacIntel,58.82352941,
,,,,,,a,1,1.048,,,,,,,,,1.048,1,0,5,5,16,1,stimuli/blank.png,begabt,a,MR03TO,2023-08-05_00h30.37.134,openIAT,2023.1.3,MacIntel,58.82352941,
,,,,,,l,1,1.078,,,,,,,,,1.078,1,0,6,6,15,1,stimuli/blank.png,träge,l,MR03TO,2023-08-05_00h30.37.134,openIAT,2023.1.3,MacIntel,58.82352941,
,,,,,,a,1,0.612,,,,,,,,,0.612,1,0,7,7,1,1,stimuli/blank.png,ich,a,MR03TO,2023-08-05_00h30.37.134,openIAT,2023.1.3,MacIntel,58.82352941,
,,,,,,a,1,0.618,,,,,,,,,0.618,1,0,8,8,12,1,stimuli/blank.png,fröhlich,a,MR03TO,2023-08-05_00h30.37.134,openIAT,2023.1.3,MacIntel,58.82352941,
,,,,,,l,1,1.017,,,,,,,,,1.017,1,0,9,9,17,1,stimuli/blank.png,eitel,l,MR03TO,2023-08-05_00h30.37.134,openIAT,2023.1.3,MacIntel,58.82352941,
,,,,,,l,1,0.653,,,,,,,,,0.653,1,0,10,10,11,1,stimuli/blank.png,brutal,l,MR03TO,2023-08-05_00h30.37.134,openIAT,2023.1.3,MacIntel,58.82352941,
,,,,,,l,1,0.72,,,,,,,,,0.72,1,0,11,11,19,1,stimuli/blank.png,lustlos,l,MR03TO,2023-08-05_00h30.37.134,openIAT,2023.1.3,MacIntel,58.82352941,
,,,,,,a,1,0.686,,,,,,,,,0.686,1,0,12,12,18,1,stimuli/blank.png,human,a,MR03TO,2023-08-05_00h30.37.134,openIAT,2023.1.3,MacIntel,58.82352941,
,,,,,,a,1,0.819,,,,,,,,,0.819,1,0,13,13,10,1,stimuli/blank.png,aktiv,a,MR03TO,2023-08-05_00h30.37.134,openIAT,2023.1.3,MacIntel,58.82352941,
,,,,,,a,1,0.863,,,,,,,,,0.863,1,0,14,14,14,1,stimuli/blank.png,gerecht,a,MR03TO,2023-08-05_00h30.37.134,openIAT,2023.1.3,MacIntel,58.82352941,
,,,,,,a,1,0.967,,,,,,,,,0.967,1,0,15,15,7,1,stimuli/blank.png,eigene,a,MR03TO,2023-08-05_00h30.37.134,openIAT,2023.1.3,MacIntel,58.82352941,
,,,,,,l,1,0.78,,,,,,,,,0.78,1,0,16,16,0,1,stimuli/blank.png,andere,l,MR03TO,2023-08-05_00h30.37.134,openIAT,2023.1.3,MacIntel,58.82352941,
,,,,,,l,1,0.829,,,,,,,,,0.829,1,0,17,17,6,1,stimuli/blank.png,euch,l,MR03TO,2023-08-05_00h30.37.134,openIAT,2023.1.3,MacIntel,58.82352941,
,,,,,,l,1,0.627,,,,,,,,,0.627,1,0,18,18,4,1,stimuli/blank.png,jene,l,MR03TO,2023-08-05_00h30.37.134,openIAT,2023.1.3,MacIntel,58.82352941,
,,,,,,l,1,0.694,,,,,,,,,0.694,1,0,19,19,2,1,stimuli/blank.png,ihr,l,MR03TO,2023-08-05_00h30.37.134,openIAT,2023.1.3,MacIntel,58.82352941,
,,,,,,l,1,1.095,,,,,,,,,1.095,1,0,0,0,26,1,stimuli/blank.png,euch,l,MR03TO,2023-08-05_00h30.37.134,openIAT,2023.1.3,MacIntel,58.82352941,
,,,,,,a,1,0.597,,,,,,,,,0.597,1,0,1,1,25,1,stimuli/blank.png,meine,a,MR03TO,2023-08-05_00h30.37.134,openIAT,2023.1.3,MacIntel,58.82352941,
,,,,,,l,1,0.771,,,,,,,,,0.771,1,0,2,2,35,1,stimuli/blank.png,träge,l,MR03TO,2023-08-05_00h30.37.134,openIAT,2023.1.3,MacIntel,58.82352941,
,,,,,,a,1,0.714,,,,,,,,,0.714,1,0,3,3,12,1,stimuli/blank.png,fröhlich,a,MR03TO,2023-08-05_00h30.37.134,openIAT,2023.1.3,MacIntel,58.82352941,
,,,,,,a,1,0.748,,,,,,,,,0.748,1,0,4,4,7,1,stimuli/blank.png,eigene,a,MR03TO,2023-08-05_00h30.37.134,openIAT,2023.1.3,MacIntel,58.82352941,
,,,,,,a,1,0.664,,,,,,,,,0.664,1,0,5,5,3,1,stimuli/blank.png,mir,a,MR03TO,2023-08-05_00h30.37.134,openIAT,2023.1.3,MacIntel,58.82352941,
,,,,,,l,1,0.679,,,,,,,,,0.679,1,0,6,6,11,1,stimuli/blank.png,brutal,l,MR03TO,2023-08-05_00h30.37.134,openIAT,2023.1.3,MacIntel,58.82352941,
,,,,,,l,1,0.762,,,,,,,,,0.762,1,0,7,7,24,1,stimuli/blank.png,jene,l,MR03TO,2023-08-05_00h30.37.134,openIAT,2023.1.3,MacIntel,58.82352941,
,,,,,,l,1,1.051,,,,,,,,,1.051,1,0,8,8,20,1,stimuli/blank.png,andere,l,MR03TO,2023-08-05_00h30.37.134,openIAT,2023.1.3,MacIntel,58.82352941,
,,,,,,a,1,0.73,,,,,,,,,0.73,1,0,9,9,23,1,stimuli/blank.png,mir,a,MR03TO,2023-08-05_00h30.37.134,openIAT,2023.1.3,MacIntel,58.82352941,
,,,,,,l,1,0.624,,,,,,,,,0.624,1,0,10,10,19,1,stimuli/blank.png,lustlos,l,MR03TO,2023-08-05_00h30.37.134,openIAT,2023.1.3,MacIntel,58.82352941,
,,,,,,a,1,0.717,,,,,,,,,0.717,1,0,11,11,18,1,stimuli/blank.png,human,a,MR03TO,2023-08-05_00h30.37.134,openIAT,2023.1.3,MacIntel,58.82352941,
,,,,,,l,1,0.663,,,,,,,,,0.663,1,0,12,12,4,1,stimuli/blank.png,jene,l,MR03TO,2023-08-05_00h30.37.134,openIAT,2023.1.3,MacIntel,58.82352941,
,,,,,,l,1,0.667,,,,,,,,,0.667,1,0,13,13,33,1,stimuli/blank.png,verlogen,l,MR03TO,2023-08-05_00h30.37.134,openIAT,2023.1.3,MacIntel,58.82352941,
,,,,,,a,1,0.644,,,,,,,,,0.644,1,0,14,14,30,1,stimuli/blank.png,aktiv,a,MR03TO,2023-08-05_00h30.37.134,openIAT,2023.1.3,MacIntel,58.82352941,
,,,,,,l,1,0.715,,,,,,,,,0.715,1,0,15,15,0,1,stimuli/blank.png,andere,l,MR03TO,2023-08-05_00h30.37.134,openIAT,2023.1.3,MacIntel,58.82352941,
,,,,,,a,0,0.731,,,,,,,,,0.731,0,0,16,16,39,1,stimuli/blank.png,lustlos,l,MR03TO,2023-08-05_00h30.37.134,openIAT,2023.1.3,MacIntel,58.82352941,
,,,,,,l,0,1.189,,,,,,,,,1.189,0,0,17,17,32,1,stimuli/blank.png,fröhlich,a,MR03TO,2023-08-05_00h30.37.134,openIAT,2023.1.3,MacIntel,58.82352941,
,,,,,,l,1,1.831,,,,,,,,,1.831,1,0,18,18,2,1,stimuli/blank.png,ihr,l,MR03TO,2023-08-05_00h30.37.134,openIAT,2023.1.3,MacIntel,58.82352941,
,,,,,,l,1,0.747,,,,,,,,,0.747,1,0,19,19,15,1,stimuli/blank.png,träge,l,MR03TO,2023-08-05_00h30.37.134,openIAT,2023.1.3,MacIntel,58.82352941,
,,,,,,a,1,0.732,,,,,,,,,0.732,1,0,20,20,9,1,stimuli/blank.png,selbst,a,MR03TO,2023-08-05_00h30.37.134,openIAT,2023.1.3,MacIntel,58.82352941,
,,,,,,a,1,0.915,,,,,,,,,0.915,1,0,21,21,38,1,stimuli/blank.png,human,a,MR03TO,2023-08-05_00h30.37.134,openIAT,2023.1.3,MacIntel,58.82352941,
,,,,,,l,1,0.545,,,,,,,,,0.545,1,0,22,22,6,1,stimuli/blank.png,euch,l,MR03TO,2023-08-05_00h30.37.134,openIAT,2023.1.3,MacIntel,58.82352941,
,,,,,,a,1,1.425,,,,,,,,,1.425,1,0,23,23,36,1,stimuli/blank.png,begabt,a,MR03TO,2023-08-05_00h30.37.134,openIAT,2023.1.3,MacIntel,58.82352941,
,,,,,,l,1,0.578,,,,,,,,,0.578,1,0,24,24,8,1,stimuli/blank.png,eure,l,MR03TO,2023-08-05_00h30.37.134,openIAT,2023.1.3,MacIntel,58.82352941,
,,,,,,l,1,0.709,,,,,,,,,0.709,1,0,25,25,13,1,stimuli/blank.png,verlogen,l,MR03TO,2023-08-05_00h30.37.134,openIAT,2023.1.3,MacIntel,58.82352941,
,,,,,,a,1,0.597,,,,,,,,,0.597,1,0,26,26,5,1,stimuli/blank.png,meine,a,MR03TO,2023-08-05_00h30.37.134,openIAT,2023.1.3,MacIntel,58.82352941,
,,,,,,l,1,0.651,,,,,,,,,0.651,1,0,27,27,31,1,stimuli/blank.png,brutal,l,MR03TO,2023-08-05_00h30.37.134,openIAT,2023.1.3,MacIntel,58.82352941,
,,,,,,a,0,1.216,,,,,,,,,1.216,0,0,28,28,17,1,stimuli/blank.png,eitel,l,MR03TO,2023-08-05_00h30.37.134,openIAT,2023.1.3,MacIntel,58.82352941,
,,,,,,a,1,2.144,,,,,,,,,2.144,1,0,29,29,16,1,stimuli/blank.png,begabt,a,MR03TO,2023-08-05_00h30.37.134,openIAT,2023.1.3,MacIntel,58.82352941,
,,,,,,a,1,0.845,,,,,,,,,0.845,1,0,30,30,34,1,stimuli/blank.png,gerecht,a,MR03TO,2023-08-05_00h30.37.134,openIAT,2023.1.3,MacIntel,58.82352941,
,,,,,,a,0,1.712,,,,,,,,,1.712,0,0,31,31,22,1,stimuli/blank.png,ihr,l,MR03TO,2023-08-05_00h30.37.134,openIAT,2023.1.3,MacIntel,58.82352941,
,,,,,,a,1,0.793,,,,,,,,,0.793,1,0,32,32,29,1,stimuli/blank.png,selbst,a,MR03TO,2023-08-05_00h30.37.134,openIAT,2023.1.3,MacIntel,58.82352941,
,,,,,,a,1,0.834,,,,,,,,,0.834,1,0,33,33,10,1,stimuli/blank.png,aktiv,a,MR03TO,2023-08-05_00h30.37.134,openIAT,2023.1.3,MacIntel,58.82352941,
,,,,,,l,1,0.915,,,,,,,,,0.915,1,0,34,34,28,1,stimuli/blank.png,eure,l,MR03TO,2023-08-05_00h30.37.134,openIAT,2023.1.3,MacIntel,58.82352941,
,,,,,,a,1,0.627,,,,,,,,,0.627,1,0,35,35,1,1,stimuli/blank.png,ich,a,MR03TO,2023-08-05_00h30.37.134,openIAT,2023.1.3,MacIntel,58.82352941,
,,,,,,a,1,1.539,,,,,,,,,1.539,1,0,36,36,14,1,stimuli/blank.png,gerecht,a,MR03TO,2023-08-05_00h30.37.134,openIAT,2023.1.3,MacIntel,58.82352941,
,,,,,,l,1,1.145,,,,,,,,,1.145,1,0,37,37,37,1,stimuli/blank.png,eitel,l,MR03TO,2023-08-05_00h30.37.134,openIAT,2023.1.3,MacIntel,58.82352941,
,,,,,,a,1,0.613,,,,,,,,,0.613,1,0,38,38,21,1,stimuli/blank.png,ich,a,MR03TO,2023-08-05_00h30.37.134,openIAT,2023.1.3,MacIntel,58.82352941,
,,,,,,a,1,0.784,,,,,,,,,0.784,1,0,39,39,27,1,stimuli/blank.png,eigene,a,MR03TO,2023-08-05_00h30.37.134,openIAT,2023.1.3,MacIntel,58.82352941,
,,,,,,a,1,1.453,,,,,,,,,1.453,1,0,0,0,4,1,stimuli/blank.png,jene,a,MR03TO,2023-08-05_00h30.37.134,openIAT,2023.1.3,MacIntel,58.82352941,
,,,,,,a,0,2.362,,,,,,,,,2.362,0,0,1,1,3,1,stimuli/blank.png,mir,l,MR03TO,2023-08-05_00h30.37.134,openIAT,2023.1.3,MacIntel,58.82352941,
,,,,,,a,1,1.313,,,,,,,,,1.313,1,0,2,2,10,1,stimuli/blank.png,andere,a,MR03TO,2023-08-05_00h30.37.134,openIAT,2023.1.3,MacIntel,58.82352941,
,,,,,,a,1,1.393,,,,,,,,,1.393,1,0,3,3,14,1,stimuli/blank.png,jene,a,MR03TO,2023-08-05_00h30.37.134,openIAT,2023.1.3,MacIntel,58.82352941,
,,,,,,a,1,1.143,,,,,,,,,1.143,1,0,4,4,16,1,stimuli/blank.png,euch,a,MR03TO,2023-08-05_00h30.37.134,openIAT,2023.1.3,MacIntel,58.82352941,
,,,,,,l,1,0.659,,,,,,,,,0.659,1,0,5,5,1,1,stimuli/blank.png,ich,l,MR03TO,2023-08-05_00h30.37.134,openIAT,2023.1.3,MacIntel,58.82352941,
,,,,,,l,1,1.54,,,,,,,,,1.54,1,0,6,6,5,1,stimuli/blank.png,meine,l,MR03TO,2023-08-05_00h30.37.134,openIAT,2023.1.3,MacIntel,58.82352941,
,,,,,,l,1,0.676,,,,,,,,,0.676,1,0,7,7,9,1,stimuli/blank.png,selbst,l,MR03TO,2023-08-05_00h30.37.134,openIAT,2023.1.3,MacIntel,58.82352941,
,,,,,,a,1,0.979,,,,,,,,,0.979,1,0,8,8,0,1,stimuli/blank.png,andere,a,MR03TO,2023-08-05_00h30.37.134,openIAT,2023.1.3,MacIntel,58.82352941,
,,,,,,l,1,1.034,,,,,,,,,1.034,1,0,9,9,11,1,stimuli/blank.png,ich,l,MR03TO,2023-08-05_00h30.37.134,openIAT,2023.1.3,MacIntel,58.82352941,
,,,,,,a,1,1.031,,,,,,,,,1.031,1,0,10,10,18,1,stimuli/blank.png,eure,a,MR03TO,2023-08-05_00h30.37.134,openIAT,2023.1.3,MacIntel,58.82352941,
,,,,,,l,1,0.713,,,,,,,,,0.713,1,0,11,11,17,1,stimuli/blank.png,eigene,l,MR03TO,2023-08-05_00h30.37.134,openIAT,2023.1.3,MacIntel,58.82352941,
,,,,,,a,1,1.35,,,,,,,,,1.35,1,0,12,12,8,1,stimuli/blank.png,eure,a,MR03TO,2023-08-05_00h30.37.134,openIAT,2023.1.3,MacIntel,58.82352941,
,,,,,,l,1,0.682,,,,,,,,,0.682,1,0,13,13,15,1,stimuli/blank.png,meine,l,MR03TO,2023-08-05_00h30.37.134,openIAT,2023.1.3,MacIntel,58.82352941,
,,,,,,l,1,0.68,,,,,,,,,0.68,1,0,14,14,13,1,stimuli/blank.png,mir,l,MR03TO,2023-08-05_00h30.37.134,openIAT,2023.1.3,MacIntel,58.82352941,
,,,,,,l,1,0.619,,,,,,,,,0.619,1,0,15,15,7,1,stimuli/blank.png,eigene,l,MR03TO,2023-08-05_00h30.37.134,openIAT,2023.1.3,MacIntel,58.82352941,
,,,,,,a,1,0.743,,,,,,,,,0.743,1,0,16,16,2,1,stimuli/blank.png,ihr,a,MR03TO,2023-08-05_00h30.37.134,openIAT,2023.1.3,MacIntel,58.82352941,
,,,,,,a,1,0.889,,,,,,,,,0.889,1,0,17,17,12,1,stimuli/blank.png,ihr,a,MR03TO,2023-08-05_00h30.37.134,openIAT,2023.1.3,MacIntel,58.82352941,
,,,,,,a,1,0.675,,,,,,,,,0.675,1,0,18,18,6,1,stimuli/blank.png,euch,a,MR03TO,2023-08-05_00h30.37.134,openIAT,2023.1.3,MacIntel,58.82352941,
,,,,,,l,1,0.604,,,,,,,,,0.604,1,0,19,19,19,1,stimuli/blank.png,selbst,l,MR03TO,2023-08-05_00h30.37.134,openIAT,2023.1.3,MacIntel,58.82352941,
,,,,,,a,1,2.168,,,,,,,,,2.168,1,0,0,0,0,1,stimuli/blank.png,andere,a,MR03TO,2023-08-05_00h30.37.134,openIAT,2023.1.3,MacIntel,58.82352941,
,,,,,,a,1,4.104,,,,,,,,,4.104,1,0,1,1,4,1,stimuli/blank.png,jene,a,MR03TO,2023-08-05_00h30.37.134,openIAT,2023.1.3,MacIntel,58.82352941,
,,,,,,a,1,1.775,,,,,,,,,1.775,1,0,2,2,10,1,stimuli/blank.png,aktiv,a,MR03TO,2023-08-05_00h30.37.134,openIAT,2023.1.3,MacIntel,58.82352941,
,,,,,,l,1,0.664,,,,,,,,,0.664,1,0,3,3,5,1,stimuli/blank.png,meine,l,MR03TO,2023-08-05_00h30.37.134,openIAT,2023.1.3,MacIntel,58.82352941,
,,,,,,l,1,1.777,,,,,,,,,1.777,1,0,4,4,7,1,stimuli/blank.png,eigene,l,MR03TO,2023-08-05_00h30.37.134,openIAT,2023.1.3,MacIntel,58.82352941,
,,,,,,l,1,1.653,,,,,,,,,1.653,1,0,5,5,15,1,stimuli/blank.png,träge,l,MR03TO,2023-08-05_00h30.37.134,openIAT,2023.1.3,MacIntel,58.82352941,
,,,,,,a,1,1.131,,,,,,,,,1.131,1,0,6,6,2,1,stimuli/blank.png,ihr,a,MR03TO,2023-08-05_00h30.37.134,openIAT,2023.1.3,MacIntel,58.82352941,
,,,,,,a,1,2.478,,,,,,,,,2.478,1,0,7,7,16,1,stimuli/blank.png,begabt,a,MR03TO,2023-08-05_00h30.37.134,openIAT,2023.1.3,MacIntel,58.82352941,
,,,,,,l,1,2.213,,,,,,,,,2.213,1,0,8,8,13,1,stimuli/blank.png,verlogen,l,MR03TO,2023-08-05_00h30.37.134,openIAT,2023.1.3,MacIntel,58.82352941,
,,,,,,l,1,1.076,,,,,,,,,1.076,1,0,9,9,19,1,stimuli/blank.png,lustlos,l,MR03TO,2023-08-05_00h30.37.134,openIAT,2023.1.3,MacIntel,58.82352941,
,,,,,,l,1,0.711,,,,,,,,,0.711,1,0,10,10,1,1,stimuli/blank.png,ich,l,MR03TO,2023-08-05_00h30.37.134,openIAT,2023.1.3,MacIntel,58.82352941,
,,,,,,a,1,0.844,,,,,,,,,0.844,1,0,11,11,6,1,stimuli/blank.png,euch,a,MR03TO,2023-08-05_00h30.37.134,openIAT,2023.1.3,MacIntel,58.82352941,
,,,,,,a,1,1.983,,,,,,,,,1.983,1,0,12,12,14,1,stimuli/blank.png,gerecht,a,MR03TO,2023-08-05_00h30.37.134,openIAT,2023.1.3,MacIntel,58.82352941,
,,,,,,a,0,0.874,,,,,,,,,0.874,0,0,13,13,17,1,stimuli/blank.png,eitel,l,MR03TO,2023-08-05_00h30.37.134,openIAT,2023.1.3,MacIntel,58.82352941,
,,,,,,l,0,1.611,,,,,,,,,1.611,0,0,14,14,18,1,stimuli/blank.png,human,a,MR03TO,2023-08-05_00h30.37.134,openIAT,2023.1.3,MacIntel,58.82352941,
,,,,,,a,1,5.728,,,,,,,,,5.728,1,0,15,15,12,1,stimuli/blank.png,fröhlich,a,MR03TO,2023-08-05_00h30.37.134,openIAT,2023.1.3,MacIntel,58.82352941,
,,,,,,l,1,1.182,,,,,,,,,1.182,1,0,16,16,3,1,stimuli/blank.png,mir,l,MR03TO,2023-08-05_00h30.37.134,openIAT,2023.1.3,MacIntel,58.82352941,
,,,,,,l,1,0.661,,,,,,,,,0.661,1,0,17,17,9,1,stimuli/blank.png,selbst,l,MR03TO,2023-08-05_00h30.37.134,openIAT,2023.1.3,MacIntel,58.82352941,
,,,,,,a,1,0.894,,,,,,,,,0.894,1,0,18,18,8,1,stimuli/blank.png,eure,a,MR03TO,2023-08-05_00h30.37.134,openIAT,2023.1.3,MacIntel,58.82352941,
,,,,,,l,1,0.83,,,,,,,,,0.83,1,0,19,19,11,1,stimuli/blank.png,brutal,l,MR03TO,2023-08-05_00h30.37.134,openIAT,2023.1.3,MacIntel,58.82352941,
,,,,,,a,1,1.037,,,,,,,,,1.037,1,0,0,0,16,1,stimuli/blank.png,begabt,a,MR03TO,2023-08-05_00h30.37.134,openIAT,2023.1.3,MacIntel,58.82352941,
,,,,,,a,1,0.9,,,,,,,,,0.9,1,0,1,1,6,1,stimuli/blank.png,euch,a,MR03TO,2023-08-05_00h30.37.134,openIAT,2023.1.3,MacIntel,58.82352941,
,,,,,,l,1,0.83,,,,,,,,,0.83,1,0,2,2,31,1,stimuli/blank.png,brutal,l,MR03TO,2023-08-05_00h30.37.134,openIAT,2023.1.3,MacIntel,58.82352941,
,,,,,,a,1,0.901,,,,,,,,,0.901,1,0,3,3,2,1,stimuli/blank.png,ihr,a,MR03TO,2023-08-05_00h30.37.134,openIAT,2023.1.3,MacIntel,58.82352941,
,,,,,,a,1,0.854,,,,,,,,,0.854,1,0,4,4,36,1,stimuli/blank.png,begabt,a,MR03TO,2023-08-05_00h30.37.134,openIAT,2023.1.3,MacIntel,58.82352941,
,,,,,,a,1,0.893,,,,,,,,,0.893,1,0,5,5,22,1,stimuli/blank.png,ihr,a,MR03TO,2023-08-05_00h30.37.134,openIAT,2023.1.3,MacIntel,58.82352941,
,,,,,,l,1,0.675,,,,,,,,,0.675,1,0,6,6,27,1,stimuli/blank.png,eigene,l,MR03TO,2023-08-05_00h30.37.134,openIAT,2023.1.3,MacIntel,58.82352941,
,,,,,,a,1,0.693,,,,,,,,,0.693,1,0,7,7,20,1,stimuli/blank.png,andere,a,MR03TO,2023-08-05_00h30.37.134,openIAT,2023.1.3,MacIntel,58.82352941,
,,,,,,a,1,1.721,,,,,,,,,1.721,1,0,8,8,14,1,stimuli/blank.png,gerecht,a,MR03TO,2023-08-05_00h30.37.134,openIAT,2023.1.3,MacIntel,58.82352941,
,,,,,,l,1,1.561,,,,,,,,,1.561,1,0,9,9,3,1,stimuli/blank.png,mir,l,MR03TO,2023-08-05_00h30.37.134,openIAT,2023.1.3,MacIntel,58.82352941,
,,,,,,l,0,0.913,,,,,,,,,0.913,0,0,10,10,18,1,stimuli/blank.png,human,a,MR03TO,2023-08-05_00h30.37.134,openIAT,2023.1.3,MacIntel,58.82352941,
,,,,,,a,1,1.26,,,,,,,,,1.26,1,0,11,11,34,1,stimuli/blank.png,gerecht,a,MR03TO,2023-08-05_00h30.37.134,openIAT,2023.1.3,MacIntel,58.82352941,
,,,,,,a,1,0.666,,,,,,,,,0.666,1,0,12,12,10,1,stimuli/blank.png,aktiv,a,MR03TO,2023-08-05_00h30.37.134,openIAT,2023.1.3,MacIntel,58.82352941,
,,,,,,l,1,2.063,,,,,,,,,2.063,1,0,13,13,13,1,stimuli/blank.png,verlogen,l,MR03TO,2023-08-05_00h30.37.134,openIAT,2023.1.3,MacIntel,58.82352941,
,,,,,,l,1,0.705,,,,,,,,,0.705,1,0,14,14,15,1,stimuli/blank.png,träge,l,MR03TO,2023-08-05_00h30.37.134,openIAT,2023.1.3,MacIntel,58.82352941,
,,,,,,a,1,0.711,,,,,,,,,0.711,1,0,15,15,26,1,stimuli/blank.png,euch,a,MR03TO,2023-08-05_00h30.37.134,openIAT,2023.1.3,MacIntel,58.82352941,
,,,,,,l,1,1.825,,,,,,,,,1.825,1,0,16,16,37,1,stimuli/blank.png,eitel,l,MR03TO,2023-08-05_00h30.37.134,openIAT,2023.1.3,MacIntel,58.82352941,
,,,,,,l,1,1.114,,,,,,,,,1.114,1,0,17,17,29,1,stimuli/blank.png,selbst,l,MR03TO,2023-08-05_00h30.37.134,openIAT,2023.1.3,MacIntel,58.82352941,
,,,,,,l,1,0.732,,,,,,,,,0.732,1,0,18,18,33,1,stimuli/blank.png,verlogen,l,MR03TO,2023-08-05_00h30.37.134,openIAT,2023.1.3,MacIntel,58.82352941,
,,,,,,a,1,1.021,,,,,,,,,1.021,1,0,19,19,0,1,stimuli/blank.png,andere,a,MR03TO,2023-08-05_00h30.37.134,openIAT,2023.1.3,MacIntel,58.82352941,
,,,,,,l,1,0.694,,,,,,,,,0.694,1,0,20,20,21,1,stimuli/blank.png,ich,l,MR03TO,2023-08-05_00h30.37.134,openIAT,2023.1.3,MacIntel,58.82352941,
,,,,,,a,1,0.797,,,,,,,,,0.797,1,0,21,21,8,1,stimuli/blank.png,eure,a,MR03TO,2023-08-05_00h30.37.134,openIAT,2023.1.3,MacIntel,58.82352941,
,,,,,,l,1,0.595,,,,,,,,,0.595,1,0,22,22,11,1,stimuli/blank.png,brutal,l,MR03TO,2023-08-05_00h30.37.134,openIAT,2023.1.3,MacIntel,58.82352941,
,,,,,,l,1,1.288,,,,,,,,,1.288,1,0,23,23,1,1,stimuli/blank.png,ich,l,MR03TO,2023-08-05_00h30.37.134,openIAT,2023.1.3,MacIntel,58.82352941,
,,,,,,l,1,1.117,,,,,,,,,1.117,1,0,24,24,17,1,stimuli/blank.png,eitel,l,MR03TO,2023-08-05_00h30.37.134,openIAT,2023.1.3,MacIntel,58.82352941,
,,,,,,l,1,0.601,,,,,,,,,0.601,1,0,25,25,9,1,stimuli/blank.png,selbst,l,MR03TO,2023-08-05_00h30.37.134,openIAT,2023.1.3,MacIntel,58.82352941,
,,,,,,l,1,0.563,,,,,,,,,0.563,1,0,26,26,19,1,stimuli/blank.png,lustlos,l,MR03TO,2023-08-05_00h30.37.134,openIAT,2023.1.3,MacIntel,58.82352941,
,,,,,,l,1,0.736,,,,,,,,,0.736,1,0,27,27,7,1,stimuli/blank.png,eigene,l,MR03TO,2023-08-05_00h30.37.134,openIAT,2023.1.3,MacIntel,58.82352941,
,,,,,,l,1,0.545,,,,,,,,,0.545,1,0,28,28,5,1,stimuli/blank.png,meine,l,MR03TO,2023-08-05_00h30.37.134,openIAT,2023.1.3,MacIntel,58.82352941,
,,,,,,l,1,0.595,,,,,,,,,0.595,1,0,29,29,23,1,stimuli/blank.png,mir,l,MR03TO,2023-08-05_00h30.37.134,openIAT,2023.1.3,MacIntel,58.82352941,
,,,,,,a,1,0.847,,,,,,,,,0.847,1,0,30,30,28,1,stimuli/blank.png,eure,a,MR03TO,2023-08-05_00h30.37.134,openIAT,2023.1.3,MacIntel,58.82352941,
,,,,,,l,0,0.949,,,,,,,,,0.949,0,0,31,31,30,1,stimuli/blank.png,aktiv,a,MR03TO,2023-08-05_00h30.37.134,openIAT,2023.1.3,MacIntel,58.82352941,
,,,,,,a,1,1.03,,,,,,,,,1.03,1,0,32,32,38,1,stimuli/blank.png,human,a,MR03TO,2023-08-05_00h30.37.134,openIAT,2023.1.3,MacIntel,58.82352941,
,,,,,,l,1,1.296,,,,,,,,,1.296,1,0,33,33,25,1,stimuli/blank.png,meine,l,MR03TO,2023-08-05_00h30.37.134,openIAT,2023.1.3,MacIntel,58.82352941,
,,,,,,l,1,0.9,,,,,,,,,0.9,1,0,34,34,39,1,stimuli/blank.png,lustlos,l,MR03TO,2023-08-05_00h30.37.134,openIAT,2023.1.3,MacIntel,58.82352941,
,,,,,,l,1,0.53,,,,,,,,,0.53,1,0,35,35,35,1,stimuli/blank.png,träge,l,MR03TO,2023-08-05_00h30.37.134,openIAT,2023.1.3,MacIntel,58.82352941,
,,,,,,a,1,1.196,,,,,,,,,1.196,1,0,36,36,32,1,stimuli/blank.png,fröhlich,a,MR03TO,2023-08-05_00h30.37.134,openIAT,2023.1.3,MacIntel,58.82352941,
,,,,,,a,1,2.567,,,,,,,,,2.567,1,0,37,37,4,1,stimuli/blank.png,jene,a,MR03TO,2023-08-05_00h30.37.134,openIAT,2023.1.3,MacIntel,58.82352941,
,,,,,,a,1,0.618,,,,,,,,,0.618,1,0,38,38,24,1,stimuli/blank.png,jene,a,MR03TO,2023-08-05_00h30.37.134,openIAT,2023.1.3,MacIntel,58.82352941,
,,,,,,a,1,0.926,,,,,,,,,0.926,1,0,39,39,12,1,stimuli/blank.png,fröhlich,a,MR03TO,2023-08-05_00h30.37.134,openIAT,2023.1.3,MacIntel,58.82352941,
,,,,,,,,,,,,,,,,,,,,,,,,,,,MR03TO,2023-08-05_00h30.37.134,openIAT,2023.1.3,MacIntel,58.82352941,
