instr_done_touch.x,instr_done_touch.y,instr_done_touch.leftButton,instr_done_touch.midButton,instr_done_touch.rightButton,instr_done_touch.clicked_name,key_resp.keys,key_resp.corr,key_resp.rt,key_resp.duration,touch_resp.x,touch_resp.y,touch_resp.leftButton,touch_resp.midButton,touch_resp.rightButton,touch_resp.time,touch_resp.clicked_name,rt,corr,trials.thisRepN,trials.thisTrialN,trials.thisN,trials.thisIndex,trials.ran,stimImage,stimWord,CorrAns,participant,date,expName,psychopyVersion,OS,frameRate,return_tic
-0.023148148,-0.408333333,1,0,0,instr_done_button,l,1,2.605,,,,,,,,,2.605,1,0,0,0,1,1,stimuli/blank.png,brutal,l,OG01SR,2023-08-06_21h41.17.697,openIAT,2023.1.3,Win32,60.0240096,
,,,,,,a,1,3.82,,,,,,,,,3.82,1,0,1,1,4,1,stimuli/blank.png,gerecht,a,OG01SR,2023-08-06_21h41.17.697,openIAT,2023.1.3,Win32,60.0240096,
,,,,,,l,1,1.698,,,,,,,,,1.698,1,0,2,2,9,1,stimuli/blank.png,lustlos,l,OG01SR,2023-08-06_21h41.17.697,openIAT,2023.1.3,Win32,60.0240096,
,,,,,,a,1,0.816,,,,,,,,,0.816,1,0,3,3,10,1,stimuli/blank.png,aktiv,a,OG01SR,2023-08-06_21h41.17.697,openIAT,2023.1.3,Win32,60.0240096,
,,,,,,l,1,1.198,,,,,,,,,1.198,1,0,4,4,5,1,stimuli/blank.png,träge,l,OG01SR,2023-08-06_21h41.17.697,openIAT,2023.1.3,Win32,60.0240096,
,,,,,,l,1,1.652,,,,,,,,,1.652,1,0,5,5,17,1,stimuli/blank.png,eitel,l,OG01SR,2023-08-06_21h41.17.697,openIAT,2023.1.3,Win32,60.0240096,
,,,,,,a,1,1.047,,,,,,,,,1.047,1,0,6,6,0,1,stimuli/blank.png,aktiv,a,OG01SR,2023-08-06_21h41.17.697,openIAT,2023.1.3,Win32,60.0240096,
,,,,,,a,1,0.883,,,,,,,,,0.883,1,0,7,7,6,1,stimuli/blank.png,begabt,a,OG01SR,2023-08-06_21h41.17.697,openIAT,2023.1.3,Win32,60.0240096,
,,,,,,l,1,1.419,,,,,,,,,1.419,1,0,8,8,15,1,stimuli/blank.png,träge,l,OG01SR,2023-08-06_21h41.17.697,openIAT,2023.1.3,Win32,60.0240096,
,,,,,,l,1,0.982,,,,,,,,,0.982,1,0,9,9,7,1,stimuli/blank.png,eitel,l,OG01SR,2023-08-06_21h41.17.697,openIAT,2023.1.3,Win32,60.0240096,
,,,,,,a,1,0.75,,,,,,,,,0.75,1,0,10,10,2,1,stimuli/blank.png,fröhlich,a,OG01SR,2023-08-06_21h41.17.697,openIAT,2023.1.3,Win32,60.0240096,
,,,,,,a,1,1.001,,,,,,,,,1.001,1,0,11,11,12,1,stimuli/blank.png,fröhlich,a,OG01SR,2023-08-06_21h41.17.697,openIAT,2023.1.3,Win32,60.0240096,
,,,,,,l,1,1.77,,,,,,,,,1.77,1,0,12,12,13,1,stimuli/blank.png,verlogen,l,OG01SR,2023-08-06_21h41.17.697,openIAT,2023.1.3,Win32,60.0240096,
,,,,,,a,1,0.781,,,,,,,,,0.781,1,0,13,13,16,1,stimuli/blank.png,begabt,a,OG01SR,2023-08-06_21h41.17.697,openIAT,2023.1.3,Win32,60.0240096,
,,,,,,l,1,1.004,,,,,,,,,1.004,1,0,14,14,11,1,stimuli/blank.png,brutal,l,OG01SR,2023-08-06_21h41.17.697,openIAT,2023.1.3,Win32,60.0240096,
,,,,,,a,1,0.868,,,,,,,,,0.868,1,0,15,15,18,1,stimuli/blank.png,human,a,OG01SR,2023-08-06_21h41.17.697,openIAT,2023.1.3,Win32,60.0240096,
,,,,,,l,1,0.988,,,,,,,,,0.988,1,0,16,16,3,1,stimuli/blank.png,verlogen,l,OG01SR,2023-08-06_21h41.17.697,openIAT,2023.1.3,Win32,60.0240096,
,,,,,,a,1,0.929,,,,,,,,,0.929,1,0,17,17,8,1,stimuli/blank.png,human,a,OG01SR,2023-08-06_21h41.17.697,openIAT,2023.1.3,Win32,60.0240096,
,,,,,,l,0,1.633,,,,,,,,,1.633,0,0,18,18,14,1,stimuli/blank.png,gerecht,a,OG01SR,2023-08-06_21h41.17.697,openIAT,2023.1.3,Win32,60.0240096,
,,,,,,l,1,2.182,,,,,,,,,2.182,1,0,19,19,19,1,stimuli/blank.png,lustlos,l,OG01SR,2023-08-06_21h41.17.697,openIAT,2023.1.3,Win32,60.0240096,
,,,,,,a,1,1.142,,,,,,,,,1.142,1,0,0,0,17,1,stimuli/blank.png,eigene,a,OG01SR,2023-08-06_21h41.17.697,openIAT,2023.1.3,Win32,60.0240096,
,,,,,,l,1,1.415,,,,,,,,,1.415,1,0,1,1,16,1,stimuli/blank.png,euch,l,OG01SR,2023-08-06_21h41.17.697,openIAT,2023.1.3,Win32,60.0240096,
,,,,,,a,1,0.815,,,,,,,,,0.815,1,0,2,2,19,1,stimuli/blank.png,selbst,a,OG01SR,2023-08-06_21h41.17.697,openIAT,2023.1.3,Win32,60.0240096,
,,,,,,a,1,0.769,,,,,,,,,0.769,1,0,3,3,5,1,stimuli/blank.png,meine,a,OG01SR,2023-08-06_21h41.17.697,openIAT,2023.1.3,Win32,60.0240096,
,,,,,,a,1,0.534,,,,,,,,,0.534,1,0,4,4,15,1,stimuli/blank.png,meine,a,OG01SR,2023-08-06_21h41.17.697,openIAT,2023.1.3,Win32,60.0240096,
,,,,,,l,0,0.899,,,,,,,,,0.899,0,0,5,5,7,1,stimuli/blank.png,eigene,a,OG01SR,2023-08-06_21h41.17.697,openIAT,2023.1.3,Win32,60.0240096,
,,,,,,a,1,0.969,,,,,,,,,0.969,1,0,6,6,1,1,stimuli/blank.png,ich,a,OG01SR,2023-08-06_21h41.17.697,openIAT,2023.1.3,Win32,60.0240096,
,,,,,,l,1,0.982,,,,,,,,,0.982,1,0,7,7,0,1,stimuli/blank.png,andere,l,OG01SR,2023-08-06_21h41.17.697,openIAT,2023.1.3,Win32,60.0240096,
,,,,,,l,1,0.948,,,,,,,,,0.948,1,0,8,8,14,1,stimuli/blank.png,jene,l,OG01SR,2023-08-06_21h41.17.697,openIAT,2023.1.3,Win32,60.0240096,
,,,,,,l,1,1.316,,,,,,,,,1.316,1,0,9,9,10,1,stimuli/blank.png,andere,l,OG01SR,2023-08-06_21h41.17.697,openIAT,2023.1.3,Win32,60.0240096,
,,,,,,l,1,0.866,,,,,,,,,0.866,1,0,10,10,12,1,stimuli/blank.png,ihr,l,OG01SR,2023-08-06_21h41.17.697,openIAT,2023.1.3,Win32,60.0240096,
,,,,,,a,1,0.698,,,,,,,,,0.698,1,0,11,11,9,1,stimuli/blank.png,selbst,a,OG01SR,2023-08-06_21h41.17.697,openIAT,2023.1.3,Win32,60.0240096,
,,,,,,l,1,1.015,,,,,,,,,1.015,1,0,12,12,4,1,stimuli/blank.png,jene,l,OG01SR,2023-08-06_21h41.17.697,openIAT,2023.1.3,Win32,60.0240096,
,,,,,,l,1,0.986,,,,,,,,,0.986,1,0,13,13,6,1,stimuli/blank.png,euch,l,OG01SR,2023-08-06_21h41.17.697,openIAT,2023.1.3,Win32,60.0240096,
,,,,,,l,1,0.859,,,,,,,,,0.859,1,0,14,14,8,1,stimuli/blank.png,eure,l,OG01SR,2023-08-06_21h41.17.697,openIAT,2023.1.3,Win32,60.0240096,
,,,,,,l,1,0.649,,,,,,,,,0.649,1,0,15,15,2,1,stimuli/blank.png,ihr,l,OG01SR,2023-08-06_21h41.17.697,openIAT,2023.1.3,Win32,60.0240096,
,,,,,,a,1,0.608,,,,,,,,,0.608,1,0,16,16,13,1,stimuli/blank.png,mir,a,OG01SR,2023-08-06_21h41.17.697,openIAT,2023.1.3,Win32,60.0240096,
,,,,,,l,1,0.668,,,,,,,,,0.668,1,0,17,17,18,1,stimuli/blank.png,eure,l,OG01SR,2023-08-06_21h41.17.697,openIAT,2023.1.3,Win32,60.0240096,
,,,,,,a,1,0.498,,,,,,,,,0.498,1,0,18,18,11,1,stimuli/blank.png,ich,a,OG01SR,2023-08-06_21h41.17.697,openIAT,2023.1.3,Win32,60.0240096,
,,,,,,l,0,0.407,,,,,,,,,0.407,0,0,19,19,3,1,stimuli/blank.png,mir,a,OG01SR,2023-08-06_21h41.17.697,openIAT,2023.1.3,Win32,60.0240096,
,,,,,,l,1,1.392,,,,,,,,,1.392,1,0,0,0,6,1,stimuli/blank.png,euch,l,OG01SR,2023-08-06_21h41.17.697,openIAT,2023.1.3,Win32,60.0240096,
,,,,,,l,1,3.604,,,,,,,,,3.604,1,0,1,1,15,1,stimuli/blank.png,träge,l,OG01SR,2023-08-06_21h41.17.697,openIAT,2023.1.3,Win32,60.0240096,
,,,,,,a,1,2.747,,,,,,,,,2.747,1,0,2,2,7,1,stimuli/blank.png,eigene,a,OG01SR,2023-08-06_21h41.17.697,openIAT,2023.1.3,Win32,60.0240096,
,,,,,,l,1,0.992,,,,,,,,,0.992,1,0,3,3,11,1,stimuli/blank.png,brutal,l,OG01SR,2023-08-06_21h41.17.697,openIAT,2023.1.3,Win32,60.0240096,
,,,,,,a,1,1.034,,,,,,,,,1.034,1,0,4,4,12,1,stimuli/blank.png,fröhlich,a,OG01SR,2023-08-06_21h41.17.697,openIAT,2023.1.3,Win32,60.0240096,
,,,,,,a,1,0.783,,,,,,,,,0.783,1,0,5,5,9,1,stimuli/blank.png,selbst,a,OG01SR,2023-08-06_21h41.17.697,openIAT,2023.1.3,Win32,60.0240096,
,,,,,,l,1,0.839,,,,,,,,,0.839,1,0,6,6,2,1,stimuli/blank.png,ihr,l,OG01SR,2023-08-06_21h41.17.697,openIAT,2023.1.3,Win32,60.0240096,
,,,,,,l,1,1.001,,,,,,,,,1.001,1,0,7,7,4,1,stimuli/blank.png,jene,l,OG01SR,2023-08-06_21h41.17.697,openIAT,2023.1.3,Win32,60.0240096,
,,,,,,a,1,1.216,,,,,,,,,1.216,1,0,8,8,14,1,stimuli/blank.png,gerecht,a,OG01SR,2023-08-06_21h41.17.697,openIAT,2023.1.3,Win32,60.0240096,
,,,,,,a,1,0.566,,,,,,,,,0.566,1,0,9,9,18,1,stimuli/blank.png,human,a,OG01SR,2023-08-06_21h41.17.697,openIAT,2023.1.3,Win32,60.0240096,
,,,,,,l,1,0.633,,,,,,,,,0.633,1,0,10,10,13,1,stimuli/blank.png,verlogen,l,OG01SR,2023-08-06_21h41.17.697,openIAT,2023.1.3,Win32,60.0240096,
,,,,,,a,1,0.519,,,,,,,,,0.519,1,0,11,11,1,1,stimuli/blank.png,ich,a,OG01SR,2023-08-06_21h41.17.697,openIAT,2023.1.3,Win32,60.0240096,
,,,,,,l,1,0.564,,,,,,,,,0.564,1,0,12,12,19,1,stimuli/blank.png,lustlos,l,OG01SR,2023-08-06_21h41.17.697,openIAT,2023.1.3,Win32,60.0240096,
,,,,,,l,1,0.62,,,,,,,,,0.62,1,0,13,13,8,1,stimuli/blank.png,eure,l,OG01SR,2023-08-06_21h41.17.697,openIAT,2023.1.3,Win32,60.0240096,
,,,,,,l,1,0.949,,,,,,,,,0.949,1,0,14,14,17,1,stimuli/blank.png,eitel,l,OG01SR,2023-08-06_21h41.17.697,openIAT,2023.1.3,Win32,60.0240096,
,,,,,,a,1,0.599,,,,,,,,,0.599,1,0,15,15,3,1,stimuli/blank.png,mir,a,OG01SR,2023-08-06_21h41.17.697,openIAT,2023.1.3,Win32,60.0240096,
,,,,,,a,1,1.064,,,,,,,,,1.064,1,0,16,16,16,1,stimuli/blank.png,begabt,a,OG01SR,2023-08-06_21h41.17.697,openIAT,2023.1.3,Win32,60.0240096,
,,,,,,a,1,0.598,,,,,,,,,0.598,1,0,17,17,10,1,stimuli/blank.png,aktiv,a,OG01SR,2023-08-06_21h41.17.697,openIAT,2023.1.3,Win32,60.0240096,
,,,,,,l,1,0.893,,,,,,,,,0.893,1,0,18,18,0,1,stimuli/blank.png,andere,l,OG01SR,2023-08-06_21h41.17.697,openIAT,2023.1.3,Win32,60.0240096,
,,,,,,a,1,0.498,,,,,,,,,0.498,1,0,19,19,5,1,stimuli/blank.png,meine,a,OG01SR,2023-08-06_21h41.17.697,openIAT,2023.1.3,Win32,60.0240096,
,,,,,,l,1,1.472,,,,,,,,,1.472,1,0,0,0,0,1,stimuli/blank.png,andere,l,OG01SR,2023-08-06_21h41.17.697,openIAT,2023.1.3,Win32,60.0240096,
,,,,,,l,1,1.682,,,,,,,,,1.682,1,0,1,1,39,1,stimuli/blank.png,lustlos,l,OG01SR,2023-08-06_21h41.17.697,openIAT,2023.1.3,Win32,60.0240096,
,,,,,,a,1,0.933,,,,,,,,,0.933,1,0,2,2,14,1,stimuli/blank.png,gerecht,a,OG01SR,2023-08-06_21h41.17.697,openIAT,2023.1.3,Win32,60.0240096,
,,,,,,l,1,0.582,,,,,,,,,0.582,1,0,3,3,33,1,stimuli/blank.png,verlogen,l,OG01SR,2023-08-06_21h41.17.697,openIAT,2023.1.3,Win32,60.0240096,
,,,,,,l,1,0.754,,,,,,,,,0.754,1,0,4,4,19,1,stimuli/blank.png,lustlos,l,OG01SR,2023-08-06_21h41.17.697,openIAT,2023.1.3,Win32,60.0240096,
,,,,,,a,1,0.633,,,,,,,,,0.633,1,0,5,5,36,1,stimuli/blank.png,begabt,a,OG01SR,2023-08-06_21h41.17.697,openIAT,2023.1.3,Win32,60.0240096,
,,,,,,a,1,0.555,,,,,,,,,0.555,1,0,6,6,32,1,stimuli/blank.png,fröhlich,a,OG01SR,2023-08-06_21h41.17.697,openIAT,2023.1.3,Win32,60.0240096,
,,,,,,a,1,0.388,,,,,,,,,0.388,1,0,7,7,23,1,stimuli/blank.png,mir,a,OG01SR,2023-08-06_21h41.17.697,openIAT,2023.1.3,Win32,60.0240096,
,,,,,,l,1,0.433,,,,,,,,,0.433,1,0,8,8,26,1,stimuli/blank.png,euch,l,OG01SR,2023-08-06_21h41.17.697,openIAT,2023.1.3,Win32,60.0240096,
,,,,,,a,1,0.334,,,,,,,,,0.334,1,0,9,9,38,1,stimuli/blank.png,human,a,OG01SR,2023-08-06_21h41.17.697,openIAT,2023.1.3,Win32,60.0240096,
,,,,,,l,1,0.329,,,,,,,,,0.329,1,0,10,10,28,1,stimuli/blank.png,eure,l,OG01SR,2023-08-06_21h41.17.697,openIAT,2023.1.3,Win32,60.0240096,
,,,,,,a,1,0.514,,,,,,,,,0.514,1,0,11,11,18,1,stimuli/blank.png,human,a,OG01SR,2023-08-06_21h41.17.697,openIAT,2023.1.3,Win32,60.0240096,
,,,,,,l,1,0.565,,,,,,,,,0.565,1,0,12,12,2,1,stimuli/blank.png,ihr,l,OG01SR,2023-08-06_21h41.17.697,openIAT,2023.1.3,Win32,60.0240096,
,,,,,,a,1,0.636,,,,,,,,,0.636,1,0,13,13,7,1,stimuli/blank.png,eigene,a,OG01SR,2023-08-06_21h41.17.697,openIAT,2023.1.3,Win32,60.0240096,
,,,,,,a,1,0.556,,,,,,,,,0.556,1,0,14,14,29,1,stimuli/blank.png,selbst,a,OG01SR,2023-08-06_21h41.17.697,openIAT,2023.1.3,Win32,60.0240096,
,,,,,,l,1,0.617,,,,,,,,,0.617,1,0,15,15,17,1,stimuli/blank.png,eitel,l,OG01SR,2023-08-06_21h41.17.697,openIAT,2023.1.3,Win32,60.0240096,
,,,,,,a,0,0.655,,,,,,,,,0.655,0,0,16,16,6,1,stimuli/blank.png,euch,l,OG01SR,2023-08-06_21h41.17.697,openIAT,2023.1.3,Win32,60.0240096,
,,,,,,a,1,0.633,,,,,,,,,0.633,1,0,17,17,25,1,stimuli/blank.png,meine,a,OG01SR,2023-08-06_21h41.17.697,openIAT,2023.1.3,Win32,60.0240096,
,,,,,,l,1,0.949,,,,,,,,,0.949,1,0,18,18,35,1,stimuli/blank.png,träge,l,OG01SR,2023-08-06_21h41.17.697,openIAT,2023.1.3,Win32,60.0240096,
,,,,,,a,1,0.733,,,,,,,,,0.733,1,0,19,19,27,1,stimuli/blank.png,eigene,a,OG01SR,2023-08-06_21h41.17.697,openIAT,2023.1.3,Win32,60.0240096,
,,,,,,l,1,0.598,,,,,,,,,0.598,1,0,20,20,37,1,stimuli/blank.png,eitel,l,OG01SR,2023-08-06_21h41.17.697,openIAT,2023.1.3,Win32,60.0240096,
,,,,,,l,1,0.738,,,,,,,,,0.738,1,0,21,21,22,1,stimuli/blank.png,ihr,l,OG01SR,2023-08-06_21h41.17.697,openIAT,2023.1.3,Win32,60.0240096,
,,,,,,a,1,0.567,,,,,,,,,0.567,1,0,22,22,21,1,stimuli/blank.png,ich,a,OG01SR,2023-08-06_21h41.17.697,openIAT,2023.1.3,Win32,60.0240096,
,,,,,,l,1,0.536,,,,,,,,,0.536,1,0,23,23,20,1,stimuli/blank.png,andere,l,OG01SR,2023-08-06_21h41.17.697,openIAT,2023.1.3,Win32,60.0240096,
,,,,,,l,1,0.799,,,,,,,,,0.799,1,0,24,24,24,1,stimuli/blank.png,jene,l,OG01SR,2023-08-06_21h41.17.697,openIAT,2023.1.3,Win32,60.0240096,
,,,,,,a,1,0.717,,,,,,,,,0.717,1,0,25,25,5,1,stimuli/blank.png,meine,a,OG01SR,2023-08-06_21h41.17.697,openIAT,2023.1.3,Win32,60.0240096,
,,,,,,a,1,0.695,,,,,,,,,0.695,1,0,26,26,16,1,stimuli/blank.png,begabt,a,OG01SR,2023-08-06_21h41.17.697,openIAT,2023.1.3,Win32,60.0240096,
,,,,,,l,0,0.632,,,,,,,,,0.632,0,0,27,27,34,1,stimuli/blank.png,gerecht,a,OG01SR,2023-08-06_21h41.17.697,openIAT,2023.1.3,Win32,60.0240096,
,,,,,,l,1,0.815,,,,,,,,,0.815,1,0,28,28,13,1,stimuli/blank.png,verlogen,l,OG01SR,2023-08-06_21h41.17.697,openIAT,2023.1.3,Win32,60.0240096,
,,,,,,a,1,0.588,,,,,,,,,0.588,1,0,29,29,10,1,stimuli/blank.png,aktiv,a,OG01SR,2023-08-06_21h41.17.697,openIAT,2023.1.3,Win32,60.0240096,
,,,,,,a,1,0.571,,,,,,,,,0.571,1,0,30,30,3,1,stimuli/blank.png,mir,a,OG01SR,2023-08-06_21h41.17.697,openIAT,2023.1.3,Win32,60.0240096,
,,,,,,a,1,1.066,,,,,,,,,1.066,1,0,31,31,9,1,stimuli/blank.png,selbst,a,OG01SR,2023-08-06_21h41.17.697,openIAT,2023.1.3,Win32,60.0240096,
,,,,,,l,0,0.447,,,,,,,,,0.447,0,0,32,32,30,1,stimuli/blank.png,aktiv,a,OG01SR,2023-08-06_21h41.17.697,openIAT,2023.1.3,Win32,60.0240096,
,,,,,,l,1,0.822,,,,,,,,,0.822,1,0,33,33,11,1,stimuli/blank.png,brutal,l,OG01SR,2023-08-06_21h41.17.697,openIAT,2023.1.3,Win32,60.0240096,
,,,,,,l,1,0.616,,,,,,,,,0.616,1,0,34,34,8,1,stimuli/blank.png,eure,l,OG01SR,2023-08-06_21h41.17.697,openIAT,2023.1.3,Win32,60.0240096,
,,,,,,l,1,0.833,,,,,,,,,0.833,1,0,35,35,15,1,stimuli/blank.png,träge,l,OG01SR,2023-08-06_21h41.17.697,openIAT,2023.1.3,Win32,60.0240096,
,,,,,,a,1,0.648,,,,,,,,,0.648,1,0,36,36,12,1,stimuli/blank.png,fröhlich,a,OG01SR,2023-08-06_21h41.17.697,openIAT,2023.1.3,Win32,60.0240096,
,,,,,,a,1,0.616,,,,,,,,,0.616,1,0,37,37,1,1,stimuli/blank.png,ich,a,OG01SR,2023-08-06_21h41.17.697,openIAT,2023.1.3,Win32,60.0240096,
,,,,,,a,0,0.365,,,,,,,,,0.365,0,0,38,38,31,1,stimuli/blank.png,brutal,l,OG01SR,2023-08-06_21h41.17.697,openIAT,2023.1.3,Win32,60.0240096,
,,,,,,l,1,0.733,,,,,,,,,0.733,1,0,39,39,4,1,stimuli/blank.png,jene,l,OG01SR,2023-08-06_21h41.17.697,openIAT,2023.1.3,Win32,60.0240096,
,,,,,,l,0,1.026,,,,,,,,,1.026,0,0,0,0,2,1,stimuli/blank.png,ihr,a,OG01SR,2023-08-06_21h41.17.697,openIAT,2023.1.3,Win32,60.0240096,
,,,,,,a,1,2.501,,,,,,,,,2.501,1,0,1,1,16,1,stimuli/blank.png,euch,a,OG01SR,2023-08-06_21h41.17.697,openIAT,2023.1.3,Win32,60.0240096,
,,,,,,a,1,0.902,,,,,,,,,0.902,1,0,2,2,18,1,stimuli/blank.png,eure,a,OG01SR,2023-08-06_21h41.17.697,openIAT,2023.1.3,Win32,60.0240096,
,,,,,,a,1,0.733,,,,,,,,,0.733,1,0,3,3,14,1,stimuli/blank.png,jene,a,OG01SR,2023-08-06_21h41.17.697,openIAT,2023.1.3,Win32,60.0240096,
,,,,,,l,1,0.42,,,,,,,,,0.42,1,0,4,4,5,1,stimuli/blank.png,meine,l,OG01SR,2023-08-06_21h41.17.697,openIAT,2023.1.3,Win32,60.0240096,
,,,,,,l,1,0.633,,,,,,,,,0.633,1,0,5,5,11,1,stimuli/blank.png,ich,l,OG01SR,2023-08-06_21h41.17.697,openIAT,2023.1.3,Win32,60.0240096,
,,,,,,l,1,0.552,,,,,,,,,0.552,1,0,6,6,1,1,stimuli/blank.png,ich,l,OG01SR,2023-08-06_21h41.17.697,openIAT,2023.1.3,Win32,60.0240096,
,,,,,,a,1,0.766,,,,,,,,,0.766,1,0,7,7,12,1,stimuli/blank.png,ihr,a,OG01SR,2023-08-06_21h41.17.697,openIAT,2023.1.3,Win32,60.0240096,
,,,,,,a,1,0.571,,,,,,,,,0.571,1,0,8,8,6,1,stimuli/blank.png,euch,a,OG01SR,2023-08-06_21h41.17.697,openIAT,2023.1.3,Win32,60.0240096,
,,,,,,a,0,0.617,,,,,,,,,0.617,0,0,9,9,17,1,stimuli/blank.png,eigene,l,OG01SR,2023-08-06_21h41.17.697,openIAT,2023.1.3,Win32,60.0240096,
,,,,,,a,1,0.848,,,,,,,,,0.848,1,0,10,10,4,1,stimuli/blank.png,jene,a,OG01SR,2023-08-06_21h41.17.697,openIAT,2023.1.3,Win32,60.0240096,
,,,,,,l,1,0.639,,,,,,,,,0.639,1,0,11,11,9,1,stimuli/blank.png,selbst,l,OG01SR,2023-08-06_21h41.17.697,openIAT,2023.1.3,Win32,60.0240096,
,,,,,,l,1,0.6,,,,,,,,,0.6,1,0,12,12,3,1,stimuli/blank.png,mir,l,OG01SR,2023-08-06_21h41.17.697,openIAT,2023.1.3,Win32,60.0240096,
,,,,,,a,1,0.715,,,,,,,,,0.715,1,0,13,13,10,1,stimuli/blank.png,andere,a,OG01SR,2023-08-06_21h41.17.697,openIAT,2023.1.3,Win32,60.0240096,
,,,,,,l,1,0.672,,,,,,,,,0.672,1,0,14,14,19,1,stimuli/blank.png,selbst,l,OG01SR,2023-08-06_21h41.17.697,openIAT,2023.1.3,Win32,60.0240096,
,,,,,,a,1,0.714,,,,,,,,,0.714,1,0,15,15,0,1,stimuli/blank.png,andere,a,OG01SR,2023-08-06_21h41.17.697,openIAT,2023.1.3,Win32,60.0240096,
,,,,,,l,1,0.684,,,,,,,,,0.684,1,0,16,16,13,1,stimuli/blank.png,mir,l,OG01SR,2023-08-06_21h41.17.697,openIAT,2023.1.3,Win32,60.0240096,
,,,,,,l,1,1.599,,,,,,,,,1.599,1,0,17,17,7,1,stimuli/blank.png,eigene,l,OG01SR,2023-08-06_21h41.17.697,openIAT,2023.1.3,Win32,60.0240096,
,,,,,,l,1,0.689,,,,,,,,,0.689,1,0,18,18,15,1,stimuli/blank.png,meine,l,OG01SR,2023-08-06_21h41.17.697,openIAT,2023.1.3,Win32,60.0240096,
,,,,,,a,1,0.694,,,,,,,,,0.694,1,0,19,19,8,1,stimuli/blank.png,eure,a,OG01SR,2023-08-06_21h41.17.697,openIAT,2023.1.3,Win32,60.0240096,
,,,,,,l,0,3.072,,,,,,,,,3.072,0,0,0,0,18,1,stimuli/blank.png,human,a,OG01SR,2023-08-06_21h41.17.697,openIAT,2023.1.3,Win32,60.0240096,
,,,,,,a,1,1,,,,,,,,,1,1,0,1,1,8,1,stimuli/blank.png,eure,a,OG01SR,2023-08-06_21h41.17.697,openIAT,2023.1.3,Win32,60.0240096,
,,,,,,a,1,0.522,,,,,,,,,0.522,1,0,2,2,6,1,stimuli/blank.png,euch,a,OG01SR,2023-08-06_21h41.17.697,openIAT,2023.1.3,Win32,60.0240096,
,,,,,,a,1,0.964,,,,,,,,,0.964,1,0,3,3,0,1,stimuli/blank.png,andere,a,OG01SR,2023-08-06_21h41.17.697,openIAT,2023.1.3,Win32,60.0240096,
,,,,,,a,0,0.667,,,,,,,,,0.667,0,0,4,4,11,1,stimuli/blank.png,brutal,l,OG01SR,2023-08-06_21h41.17.697,openIAT,2023.1.3,Win32,60.0240096,
,,,,,,l,1,3.388,,,,,,,,,3.388,1,0,5,5,19,1,stimuli/blank.png,lustlos,l,OG01SR,2023-08-06_21h41.17.697,openIAT,2023.1.3,Win32,60.0240096,
,,,,,,a,1,2.202,,,,,,,,,2.202,1,0,6,6,14,1,stimuli/blank.png,gerecht,a,OG01SR,2023-08-06_21h41.17.697,openIAT,2023.1.3,Win32,60.0240096,
,,,,,,a,1,0.933,,,,,,,,,0.933,1,0,7,7,2,1,stimuli/blank.png,ihr,a,OG01SR,2023-08-06_21h41.17.697,openIAT,2023.1.3,Win32,60.0240096,
,,,,,,a,1,0.792,,,,,,,,,0.792,1,0,8,8,4,1,stimuli/blank.png,jene,a,OG01SR,2023-08-06_21h41.17.697,openIAT,2023.1.3,Win32,60.0240096,
,,,,,,l,1,0.602,,,,,,,,,0.602,1,0,9,9,13,1,stimuli/blank.png,verlogen,l,OG01SR,2023-08-06_21h41.17.697,openIAT,2023.1.3,Win32,60.0240096,
,,,,,,l,1,0.85,,,,,,,,,0.85,1,0,10,10,5,1,stimuli/blank.png,meine,l,OG01SR,2023-08-06_21h41.17.697,openIAT,2023.1.3,Win32,60.0240096,
,,,,,,l,1,0.948,,,,,,,,,0.948,1,0,11,11,7,1,stimuli/blank.png,eigene,l,OG01SR,2023-08-06_21h41.17.697,openIAT,2023.1.3,Win32,60.0240096,
,,,,,,l,0,0.617,,,,,,,,,0.617,0,0,12,12,12,1,stimuli/blank.png,fröhlich,a,OG01SR,2023-08-06_21h41.17.697,openIAT,2023.1.3,Win32,60.0240096,
,,,,,,l,0,2.415,,,,,,,,,2.415,0,0,13,13,16,1,stimuli/blank.png,begabt,a,OG01SR,2023-08-06_21h41.17.697,openIAT,2023.1.3,Win32,60.0240096,
,,,,,,a,1,3.787,,,,,,,,,3.787,1,0,14,14,10,1,stimuli/blank.png,aktiv,a,OG01SR,2023-08-06_21h41.17.697,openIAT,2023.1.3,Win32,60.0240096,
,,,,,,l,1,1.353,,,,,,,,,1.353,1,0,15,15,15,1,stimuli/blank.png,träge,l,OG01SR,2023-08-06_21h41.17.697,openIAT,2023.1.3,Win32,60.0240096,
,,,,,,l,1,0.642,,,,,,,,,0.642,1,0,16,16,3,1,stimuli/blank.png,mir,l,OG01SR,2023-08-06_21h41.17.697,openIAT,2023.1.3,Win32,60.0240096,
,,,,,,l,1,0.666,,,,,,,,,0.666,1,0,17,17,9,1,stimuli/blank.png,selbst,l,OG01SR,2023-08-06_21h41.17.697,openIAT,2023.1.3,Win32,60.0240096,
,,,,,,l,1,0.454,,,,,,,,,0.454,1,0,18,18,1,1,stimuli/blank.png,ich,l,OG01SR,2023-08-06_21h41.17.697,openIAT,2023.1.3,Win32,60.0240096,
,,,,,,a,0,0.752,,,,,,,,,0.752,0,0,19,19,17,1,stimuli/blank.png,eitel,l,OG01SR,2023-08-06_21h41.17.697,openIAT,2023.1.3,Win32,60.0240096,
,,,,,,l,1,2.831,,,,,,,,,2.831,1,0,0,0,31,1,stimuli/blank.png,brutal,l,OG01SR,2023-08-06_21h41.17.697,openIAT,2023.1.3,Win32,60.0240096,
,,,,,,a,1,1.331,,,,,,,,,1.331,1,0,1,1,20,1,stimuli/blank.png,andere,a,OG01SR,2023-08-06_21h41.17.697,openIAT,2023.1.3,Win32,60.0240096,
,,,,,,a,0,0.716,,,,,,,,,0.716,0,0,2,2,19,1,stimuli/blank.png,lustlos,l,OG01SR,2023-08-06_21h41.17.697,openIAT,2023.1.3,Win32,60.0240096,
,,,,,,l,1,1.149,,,,,,,,,1.149,1,0,3,3,23,1,stimuli/blank.png,mir,l,OG01SR,2023-08-06_21h41.17.697,openIAT,2023.1.3,Win32,60.0240096,
,,,,,,l,1,0.916,,,,,,,,,0.916,1,0,4,4,39,1,stimuli/blank.png,lustlos,l,OG01SR,2023-08-06_21h41.17.697,openIAT,2023.1.3,Win32,60.0240096,
,,,,,,l,1,0.654,,,,,,,,,0.654,1,0,5,5,35,1,stimuli/blank.png,träge,l,OG01SR,2023-08-06_21h41.17.697,openIAT,2023.1.3,Win32,60.0240096,
,,,,,,a,1,1.017,,,,,,,,,1.017,1,0,6,6,12,1,stimuli/blank.png,fröhlich,a,OG01SR,2023-08-06_21h41.17.697,openIAT,2023.1.3,Win32,60.0240096,
,,,,,,a,1,1.252,,,,,,,,,1.252,1,0,7,7,26,1,stimuli/blank.png,euch,a,OG01SR,2023-08-06_21h41.17.697,openIAT,2023.1.3,Win32,60.0240096,
,,,,,,l,1,0.998,,,,,,,,,0.998,1,0,8,8,13,1,stimuli/blank.png,verlogen,l,OG01SR,2023-08-06_21h41.17.697,openIAT,2023.1.3,Win32,60.0240096,
,,,,,,l,1,0.881,,,,,,,,,0.881,1,0,9,9,15,1,stimuli/blank.png,träge,l,OG01SR,2023-08-06_21h41.17.697,openIAT,2023.1.3,Win32,60.0240096,
,,,,,,a,1,0.982,,,,,,,,,0.982,1,0,10,10,22,1,stimuli/blank.png,ihr,a,OG01SR,2023-08-06_21h41.17.697,openIAT,2023.1.3,Win32,60.0240096,
,,,,,,a,1,1,,,,,,,,,1,1,0,11,11,32,1,stimuli/blank.png,fröhlich,a,OG01SR,2023-08-06_21h41.17.697,openIAT,2023.1.3,Win32,60.0240096,
,,,,,,a,1,1.52,,,,,,,,,1.52,1,0,12,12,16,1,stimuli/blank.png,begabt,a,OG01SR,2023-08-06_21h41.17.697,openIAT,2023.1.3,Win32,60.0240096,
,,,,,,l,1,0.72,,,,,,,,,0.72,1,0,13,13,1,1,stimuli/blank.png,ich,l,OG01SR,2023-08-06_21h41.17.697,openIAT,2023.1.3,Win32,60.0240096,
,,,,,,l,1,0.598,,,,,,,,,0.598,1,0,14,14,3,1,stimuli/blank.png,mir,l,OG01SR,2023-08-06_21h41.17.697,openIAT,2023.1.3,Win32,60.0240096,
,,,,,,a,1,0.966,,,,,,,,,0.966,1,0,15,15,2,1,stimuli/blank.png,ihr,a,OG01SR,2023-08-06_21h41.17.697,openIAT,2023.1.3,Win32,60.0240096,
,,,,,,a,1,0.716,,,,,,,,,0.716,1,0,16,16,4,1,stimuli/blank.png,jene,a,OG01SR,2023-08-06_21h41.17.697,openIAT,2023.1.3,Win32,60.0240096,
,,,,,,l,1,1.269,,,,,,,,,1.269,1,0,17,17,17,1,stimuli/blank.png,eitel,l,OG01SR,2023-08-06_21h41.17.697,openIAT,2023.1.3,Win32,60.0240096,
,,,,,,a,1,1.749,,,,,,,,,1.749,1,0,18,18,36,1,stimuli/blank.png,begabt,a,OG01SR,2023-08-06_21h41.17.697,openIAT,2023.1.3,Win32,60.0240096,
,,,,,,l,1,1.299,,,,,,,,,1.299,1,0,19,19,5,1,stimuli/blank.png,meine,l,OG01SR,2023-08-06_21h41.17.697,openIAT,2023.1.3,Win32,60.0240096,
,,,,,,a,1,1.117,,,,,,,,,1.117,1,0,20,20,14,1,stimuli/blank.png,gerecht,a,OG01SR,2023-08-06_21h41.17.697,openIAT,2023.1.3,Win32,60.0240096,
,,,,,,a,1,0.615,,,,,,,,,0.615,1,0,21,21,10,1,stimuli/blank.png,aktiv,a,OG01SR,2023-08-06_21h41.17.697,openIAT,2023.1.3,Win32,60.0240096,
,,,,,,l,1,0.772,,,,,,,,,0.772,1,0,22,22,9,1,stimuli/blank.png,selbst,l,OG01SR,2023-08-06_21h41.17.697,openIAT,2023.1.3,Win32,60.0240096,
,,,,,,l,1,1.098,,,,,,,,,1.098,1,0,23,23,37,1,stimuli/blank.png,eitel,l,OG01SR,2023-08-06_21h41.17.697,openIAT,2023.1.3,Win32,60.0240096,
,,,,,,a,1,0.899,,,,,,,,,0.899,1,0,24,24,18,1,stimuli/blank.png,human,a,OG01SR,2023-08-06_21h41.17.697,openIAT,2023.1.3,Win32,60.0240096,
,,,,,,l,0,1.515,,,,,,,,,1.515,0,0,25,25,8,1,stimuli/blank.png,eure,a,OG01SR,2023-08-06_21h41.17.697,openIAT,2023.1.3,Win32,60.0240096,
,,,,,,l,0,1.666,,,,,,,,,1.666,0,0,26,26,30,1,stimuli/blank.png,aktiv,a,OG01SR,2023-08-06_21h41.17.697,openIAT,2023.1.3,Win32,60.0240096,
,,,,,,a,1,0.917,,,,,,,,,0.917,1,0,27,27,0,1,stimuli/blank.png,andere,a,OG01SR,2023-08-06_21h41.17.697,openIAT,2023.1.3,Win32,60.0240096,
,,,,,,l,1,0.865,,,,,,,,,0.865,1,0,28,28,27,1,stimuli/blank.png,eigene,l,OG01SR,2023-08-06_21h41.17.697,openIAT,2023.1.3,Win32,60.0240096,
,,,,,,a,1,1.198,,,,,,,,,1.198,1,0,29,29,38,1,stimuli/blank.png,human,a,OG01SR,2023-08-06_21h41.17.697,openIAT,2023.1.3,Win32,60.0240096,
,,,,,,l,1,1.823,,,,,,,,,1.823,1,0,30,30,7,1,stimuli/blank.png,eigene,l,OG01SR,2023-08-06_21h41.17.697,openIAT,2023.1.3,Win32,60.0240096,
,,,,,,l,1,0.599,,,,,,,,,0.599,1,0,31,31,25,1,stimuli/blank.png,meine,l,OG01SR,2023-08-06_21h41.17.697,openIAT,2023.1.3,Win32,60.0240096,
,,,,,,l,1,0.649,,,,,,,,,0.649,1,0,32,32,21,1,stimuli/blank.png,ich,l,OG01SR,2023-08-06_21h41.17.697,openIAT,2023.1.3,Win32,60.0240096,
,,,,,,a,1,1.248,,,,,,,,,1.248,1,0,33,33,28,1,stimuli/blank.png,eure,a,OG01SR,2023-08-06_21h41.17.697,openIAT,2023.1.3,Win32,60.0240096,
,,,,,,a,1,2.171,,,,,,,,,2.171,1,0,34,34,34,1,stimuli/blank.png,gerecht,a,OG01SR,2023-08-06_21h41.17.697,openIAT,2023.1.3,Win32,60.0240096,
,,,,,,l,1,1.82,,,,,,,,,1.82,1,0,35,35,29,1,stimuli/blank.png,selbst,l,OG01SR,2023-08-06_21h41.17.697,openIAT,2023.1.3,Win32,60.0240096,
,,,,,,l,1,5.055,,,,,,,,,5.055,1,0,36,36,11,1,stimuli/blank.png,brutal,l,OG01SR,2023-08-06_21h41.17.697,openIAT,2023.1.3,Win32,60.0240096,
,,,,,,a,1,1.279,,,,,,,,,1.279,1,0,37,37,6,1,stimuli/blank.png,euch,a,OG01SR,2023-08-06_21h41.17.697,openIAT,2023.1.3,Win32,60.0240096,
,,,,,,a,1,0.665,,,,,,,,,0.665,1,0,38,38,24,1,stimuli/blank.png,jene,a,OG01SR,2023-08-06_21h41.17.697,openIAT,2023.1.3,Win32,60.0240096,
,,,,,,l,1,1.214,,,,,,,,,1.214,1,0,39,39,33,1,stimuli/blank.png,verlogen,l,OG01SR,2023-08-06_21h41.17.697,openIAT,2023.1.3,Win32,60.0240096,
,,,,,,,,,,,,,,,,,,,,,,,,,,,OG01SR,2023-08-06_21h41.17.697,openIAT,2023.1.3,Win32,60.0240096,
