instr_done_touch.x,instr_done_touch.y,instr_done_touch.leftButton,instr_done_touch.midButton,instr_done_touch.rightButton,instr_done_touch.clicked_name,key_resp.keys,key_resp.corr,key_resp.rt,key_resp.duration,touch_resp.x,touch_resp.y,touch_resp.leftButton,touch_resp.midButton,touch_resp.rightButton,touch_resp.time,touch_resp.clicked_name,rt,corr,trials.thisRepN,trials.thisTrialN,trials.thisN,trials.thisIndex,trials.ran,stimImage,stimWord,CorrAns,participant,date,expName,psychopyVersion,OS,frameRate,return_tic
-0.091666667,-0.401851852,1,0,0,instr_done_button,l,1,1.2368,,,,,,,,,1.2368,1,0,0,0,17,1,stimuli/blank.png,eitel,l,RT11AM,2023-07-31_11h08.57.177,openIAT,2023.1.3,Win32,49.98250612,
,,,,,,l,1,1.4944,,,,,,,,,1.4944,1,0,1,1,7,1,stimuli/blank.png,eitel,l,RT11AM,2023-07-31_11h08.57.177,openIAT,2023.1.3,Win32,49.98250612,
,,,,,,a,1,0.9024,,,,,,,,,0.9024,1,0,2,2,14,1,stimuli/blank.png,gerecht,a,RT11AM,2023-07-31_11h08.57.177,openIAT,2023.1.3,Win32,49.98250612,
,,,,,,l,1,1.001,,,,,,,,,1.001,1,0,3,3,1,1,stimuli/blank.png,brutal,l,RT11AM,2023-07-31_11h08.57.177,openIAT,2023.1.3,Win32,49.98250612,
,,,,,,a,1,0.8126,,,,,,,,,0.8126,1,0,4,4,2,1,stimuli/blank.png,fröhlich,a,RT11AM,2023-07-31_11h08.57.177,openIAT,2023.1.3,Win32,49.98250612,
,,,,,,l,0,1.0271,,,,,,,,,1.0271,0,0,5,5,16,1,stimuli/blank.png,begabt,a,RT11AM,2023-07-31_11h08.57.177,openIAT,2023.1.3,Win32,49.98250612,
,,,,,,a,1,2.1747,,,,,,,,,2.1747,1,0,6,6,4,1,stimuli/blank.png,gerecht,a,RT11AM,2023-07-31_11h08.57.177,openIAT,2023.1.3,Win32,49.98250612,
,,,,,,a,1,1.0397,,,,,,,,,1.0397,1,0,7,7,12,1,stimuli/blank.png,fröhlich,a,RT11AM,2023-07-31_11h08.57.177,openIAT,2023.1.3,Win32,49.98250612,
,,,,,,a,1,1.2314,,,,,,,,,1.2314,1,0,8,8,6,1,stimuli/blank.png,begabt,a,RT11AM,2023-07-31_11h08.57.177,openIAT,2023.1.3,Win32,49.98250612,
,,,,,,a,1,0.8996,,,,,,,,,0.8996,1,0,9,9,10,1,stimuli/blank.png,aktiv,a,RT11AM,2023-07-31_11h08.57.177,openIAT,2023.1.3,Win32,49.98250612,
,,,,,,l,1,0.8827,,,,,,,,,0.8827,1,0,10,10,11,1,stimuli/blank.png,brutal,l,RT11AM,2023-07-31_11h08.57.177,openIAT,2023.1.3,Win32,49.98250612,
,,,,,,l,1,1.002,,,,,,,,,1.002,1,0,11,11,3,1,stimuli/blank.png,verlogen,l,RT11AM,2023-07-31_11h08.57.177,openIAT,2023.1.3,Win32,49.98250612,
,,,,,,a,1,0.9443,,,,,,,,,0.9443,1,0,12,12,18,1,stimuli/blank.png,human,a,RT11AM,2023-07-31_11h08.57.177,openIAT,2023.1.3,Win32,49.98250612,
,,,,,,a,1,1.255,,,,,,,,,1.255,1,0,13,13,8,1,stimuli/blank.png,human,a,RT11AM,2023-07-31_11h08.57.177,openIAT,2023.1.3,Win32,49.98250612,
,,,,,,a,0,1.3624,,,,,,,,,1.3624,0,0,14,14,19,1,stimuli/blank.png,lustlos,l,RT11AM,2023-07-31_11h08.57.177,openIAT,2023.1.3,Win32,49.98250612,
,,,,,,l,1,1.9241,,,,,,,,,1.9241,1,0,15,15,13,1,stimuli/blank.png,verlogen,l,RT11AM,2023-07-31_11h08.57.177,openIAT,2023.1.3,Win32,49.98250612,
,,,,,,l,1,1.184,,,,,,,,,1.184,1,0,16,16,5,1,stimuli/blank.png,träge,l,RT11AM,2023-07-31_11h08.57.177,openIAT,2023.1.3,Win32,49.98250612,
,,,,,,l,1,0.8254,,,,,,,,,0.8254,1,0,17,17,15,1,stimuli/blank.png,träge,l,RT11AM,2023-07-31_11h08.57.177,openIAT,2023.1.3,Win32,49.98250612,
,,,,,,a,1,0.8197,,,,,,,,,0.8197,1,0,18,18,0,1,stimuli/blank.png,aktiv,a,RT11AM,2023-07-31_11h08.57.177,openIAT,2023.1.3,Win32,49.98250612,
,,,,,,l,1,1.0618,,,,,,,,,1.0618,1,0,19,19,9,1,stimuli/blank.png,lustlos,l,RT11AM,2023-07-31_11h08.57.177,openIAT,2023.1.3,Win32,49.98250612,
,,,,,,l,1,0.983,,,,,,,,,0.983,1,0,0,0,14,1,stimuli/blank.png,jene,l,RT11AM,2023-07-31_11h08.57.177,openIAT,2023.1.3,Win32,49.98250612,
,,,,,,l,1,0.8619,,,,,,,,,0.8619,1,0,1,1,16,1,stimuli/blank.png,euch,l,RT11AM,2023-07-31_11h08.57.177,openIAT,2023.1.3,Win32,49.98250612,
,,,,,,l,1,0.7828,,,,,,,,,0.7828,1,0,2,2,18,1,stimuli/blank.png,eure,l,RT11AM,2023-07-31_11h08.57.177,openIAT,2023.1.3,Win32,49.98250612,
,,,,,,l,1,0.7429,,,,,,,,,0.7429,1,0,3,3,2,1,stimuli/blank.png,ihr,l,RT11AM,2023-07-31_11h08.57.177,openIAT,2023.1.3,Win32,49.98250612,
,,,,,,l,1,0.8891,,,,,,,,,0.8891,1,0,4,4,10,1,stimuli/blank.png,andere,l,RT11AM,2023-07-31_11h08.57.177,openIAT,2023.1.3,Win32,49.98250612,
,,,,,,a,1,0.8023,,,,,,,,,0.8023,1,0,5,5,19,1,stimuli/blank.png,selbst,a,RT11AM,2023-07-31_11h08.57.177,openIAT,2023.1.3,Win32,49.98250612,
,,,,,,a,1,0.6619,,,,,,,,,0.6619,1,0,6,6,13,1,stimuli/blank.png,mir,a,RT11AM,2023-07-31_11h08.57.177,openIAT,2023.1.3,Win32,49.98250612,
,,,,,,a,1,0.6225,,,,,,,,,0.6225,1,0,7,7,3,1,stimuli/blank.png,mir,a,RT11AM,2023-07-31_11h08.57.177,openIAT,2023.1.3,Win32,49.98250612,
,,,,,,a,1,0.6679,,,,,,,,,0.6679,1,0,8,8,11,1,stimuli/blank.png,ich,a,RT11AM,2023-07-31_11h08.57.177,openIAT,2023.1.3,Win32,49.98250612,
,,,,,,a,1,0.9137,,,,,,,,,0.9137,1,0,9,9,17,1,stimuli/blank.png,eigene,a,RT11AM,2023-07-31_11h08.57.177,openIAT,2023.1.3,Win32,49.98250612,
,,,,,,a,1,0.6233,,,,,,,,,0.6233,1,0,10,10,7,1,stimuli/blank.png,eigene,a,RT11AM,2023-07-31_11h08.57.177,openIAT,2023.1.3,Win32,49.98250612,
,,,,,,a,1,0.731,,,,,,,,,0.731,1,0,11,11,5,1,stimuli/blank.png,meine,a,RT11AM,2023-07-31_11h08.57.177,openIAT,2023.1.3,Win32,49.98250612,
,,,,,,a,1,0.5815,,,,,,,,,0.5815,1,0,12,12,9,1,stimuli/blank.png,selbst,a,RT11AM,2023-07-31_11h08.57.177,openIAT,2023.1.3,Win32,49.98250612,
,,,,,,a,0,0.6029,,,,,,,,,0.6029,0,0,13,13,8,1,stimuli/blank.png,eure,l,RT11AM,2023-07-31_11h08.57.177,openIAT,2023.1.3,Win32,49.98250612,
,,,,,,l,1,0.7846,,,,,,,,,0.7846,1,0,14,14,0,1,stimuli/blank.png,andere,l,RT11AM,2023-07-31_11h08.57.177,openIAT,2023.1.3,Win32,49.98250612,
,,,,,,l,1,0.9028,,,,,,,,,0.9028,1,0,15,15,6,1,stimuli/blank.png,euch,l,RT11AM,2023-07-31_11h08.57.177,openIAT,2023.1.3,Win32,49.98250612,
,,,,,,l,1,1.3432,,,,,,,,,1.3432,1,0,16,16,4,1,stimuli/blank.png,jene,l,RT11AM,2023-07-31_11h08.57.177,openIAT,2023.1.3,Win32,49.98250612,
,,,,,,l,1,0.7625,,,,,,,,,0.7625,1,0,17,17,12,1,stimuli/blank.png,ihr,l,RT11AM,2023-07-31_11h08.57.177,openIAT,2023.1.3,Win32,49.98250612,
,,,,,,a,1,0.7421,,,,,,,,,0.7421,1,0,18,18,1,1,stimuli/blank.png,ich,a,RT11AM,2023-07-31_11h08.57.177,openIAT,2023.1.3,Win32,49.98250612,
,,,,,,l,0,1.3649,,,,,,,,,1.3649,0,0,19,19,15,1,stimuli/blank.png,meine,a,RT11AM,2023-07-31_11h08.57.177,openIAT,2023.1.3,Win32,49.98250612,
,,,,,,l,1,2.306,,,,,,,,,2.306,1,0,0,0,2,1,stimuli/blank.png,ihr,l,RT11AM,2023-07-31_11h08.57.177,openIAT,2023.1.3,Win32,49.98250612,
,,,,,,l,1,1.163,,,,,,,,,1.163,1,0,1,1,19,1,stimuli/blank.png,lustlos,l,RT11AM,2023-07-31_11h08.57.177,openIAT,2023.1.3,Win32,49.98250612,
,,,,,,a,1,0.7826,,,,,,,,,0.7826,1,0,2,2,9,1,stimuli/blank.png,selbst,a,RT11AM,2023-07-31_11h08.57.177,openIAT,2023.1.3,Win32,49.98250612,
,,,,,,a,1,1.1636,,,,,,,,,1.1636,1,0,3,3,14,1,stimuli/blank.png,gerecht,a,RT11AM,2023-07-31_11h08.57.177,openIAT,2023.1.3,Win32,49.98250612,
,,,,,,l,1,0.8414,,,,,,,,,0.8414,1,0,4,4,15,1,stimuli/blank.png,träge,l,RT11AM,2023-07-31_11h08.57.177,openIAT,2023.1.3,Win32,49.98250612,
,,,,,,a,1,0.9224,,,,,,,,,0.9224,1,0,5,5,5,1,stimuli/blank.png,meine,a,RT11AM,2023-07-31_11h08.57.177,openIAT,2023.1.3,Win32,49.98250612,
,,,,,,a,1,2.325,,,,,,,,,2.325,1,0,6,6,18,1,stimuli/blank.png,human,a,RT11AM,2023-07-31_11h08.57.177,openIAT,2023.1.3,Win32,49.98250612,
,,,,,,a,1,1.1425,,,,,,,,,1.1425,1,0,7,7,10,1,stimuli/blank.png,aktiv,a,RT11AM,2023-07-31_11h08.57.177,openIAT,2023.1.3,Win32,49.98250612,
,,,,,,l,1,0.843,,,,,,,,,0.843,1,0,8,8,4,1,stimuli/blank.png,jene,l,RT11AM,2023-07-31_11h08.57.177,openIAT,2023.1.3,Win32,49.98250612,
,,,,,,l,1,0.9942,,,,,,,,,0.9942,1,0,9,9,11,1,stimuli/blank.png,brutal,l,RT11AM,2023-07-31_11h08.57.177,openIAT,2023.1.3,Win32,49.98250612,
,,,,,,a,1,1.0031,,,,,,,,,1.0031,1,0,10,10,12,1,stimuli/blank.png,fröhlich,a,RT11AM,2023-07-31_11h08.57.177,openIAT,2023.1.3,Win32,49.98250612,
,,,,,,l,1,1.9047,,,,,,,,,1.9047,1,0,11,11,6,1,stimuli/blank.png,euch,l,RT11AM,2023-07-31_11h08.57.177,openIAT,2023.1.3,Win32,49.98250612,
,,,,,,a,1,0.8774,,,,,,,,,0.8774,1,0,12,12,3,1,stimuli/blank.png,mir,a,RT11AM,2023-07-31_11h08.57.177,openIAT,2023.1.3,Win32,49.98250612,
,,,,,,a,1,1.4041,,,,,,,,,1.4041,1,0,13,13,7,1,stimuli/blank.png,eigene,a,RT11AM,2023-07-31_11h08.57.177,openIAT,2023.1.3,Win32,49.98250612,
,,,,,,l,1,0.8633,,,,,,,,,0.8633,1,0,14,14,13,1,stimuli/blank.png,verlogen,l,RT11AM,2023-07-31_11h08.57.177,openIAT,2023.1.3,Win32,49.98250612,
,,,,,,a,1,0.7019,,,,,,,,,0.7019,1,0,15,15,1,1,stimuli/blank.png,ich,a,RT11AM,2023-07-31_11h08.57.177,openIAT,2023.1.3,Win32,49.98250612,
,,,,,,a,0,0.7882,,,,,,,,,0.7882,0,0,16,16,17,1,stimuli/blank.png,eitel,l,RT11AM,2023-07-31_11h08.57.177,openIAT,2023.1.3,Win32,49.98250612,
,,,,,,a,1,1.7444,,,,,,,,,1.7444,1,0,17,17,16,1,stimuli/blank.png,begabt,a,RT11AM,2023-07-31_11h08.57.177,openIAT,2023.1.3,Win32,49.98250612,
,,,,,,l,1,0.8418,,,,,,,,,0.8418,1,0,18,18,0,1,stimuli/blank.png,andere,l,RT11AM,2023-07-31_11h08.57.177,openIAT,2023.1.3,Win32,49.98250612,
,,,,,,l,1,1.1027,,,,,,,,,1.1027,1,0,19,19,8,1,stimuli/blank.png,eure,l,RT11AM,2023-07-31_11h08.57.177,openIAT,2023.1.3,Win32,49.98250612,
,,,,,,a,1,0.8316,,,,,,,,,0.8316,1,0,0,0,36,1,stimuli/blank.png,begabt,a,RT11AM,2023-07-31_11h08.57.177,openIAT,2023.1.3,Win32,49.98250612,
,,,,,,a,0,0.7618,,,,,,,,,0.7618,0,0,1,1,17,1,stimuli/blank.png,eitel,l,RT11AM,2023-07-31_11h08.57.177,openIAT,2023.1.3,Win32,49.98250612,
,,,,,,l,1,0.8421,,,,,,,,,0.8421,1,0,2,2,31,1,stimuli/blank.png,brutal,l,RT11AM,2023-07-31_11h08.57.177,openIAT,2023.1.3,Win32,49.98250612,
,,,,,,l,1,0.8241,,,,,,,,,0.8241,1,0,3,3,28,1,stimuli/blank.png,eure,l,RT11AM,2023-07-31_11h08.57.177,openIAT,2023.1.3,Win32,49.98250612,
,,,,,,l,1,0.8547,,,,,,,,,0.8547,1,0,4,4,4,1,stimuli/blank.png,jene,l,RT11AM,2023-07-31_11h08.57.177,openIAT,2023.1.3,Win32,49.98250612,
,,,,,,a,0,0.9017,,,,,,,,,0.9017,0,0,5,5,39,1,stimuli/blank.png,lustlos,l,RT11AM,2023-07-31_11h08.57.177,openIAT,2023.1.3,Win32,49.98250612,
,,,,,,l,0,0.7631,,,,,,,,,0.7631,0,0,6,6,21,1,stimuli/blank.png,ich,a,RT11AM,2023-07-31_11h08.57.177,openIAT,2023.1.3,Win32,49.98250612,
,,,,,,a,1,0.8823,,,,,,,,,0.8823,1,0,7,7,25,1,stimuli/blank.png,meine,a,RT11AM,2023-07-31_11h08.57.177,openIAT,2023.1.3,Win32,49.98250612,
,,,,,,a,1,1.257,,,,,,,,,1.257,1,0,8,8,12,1,stimuli/blank.png,fröhlich,a,RT11AM,2023-07-31_11h08.57.177,openIAT,2023.1.3,Win32,49.98250612,
,,,,,,l,1,0.763,,,,,,,,,0.763,1,0,9,9,26,1,stimuli/blank.png,euch,l,RT11AM,2023-07-31_11h08.57.177,openIAT,2023.1.3,Win32,49.98250612,
,,,,,,l,1,1.0211,,,,,,,,,1.0211,1,0,10,10,15,1,stimuli/blank.png,träge,l,RT11AM,2023-07-31_11h08.57.177,openIAT,2023.1.3,Win32,49.98250612,
,,,,,,a,1,0.858,,,,,,,,,0.858,1,0,11,11,16,1,stimuli/blank.png,begabt,a,RT11AM,2023-07-31_11h08.57.177,openIAT,2023.1.3,Win32,49.98250612,
,,,,,,l,0,0.9886,,,,,,,,,0.9886,0,0,12,12,29,1,stimuli/blank.png,selbst,a,RT11AM,2023-07-31_11h08.57.177,openIAT,2023.1.3,Win32,49.98250612,
,,,,,,a,1,1.01,,,,,,,,,1.01,1,0,13,13,18,1,stimuli/blank.png,human,a,RT11AM,2023-07-31_11h08.57.177,openIAT,2023.1.3,Win32,49.98250612,
,,,,,,l,1,0.8629,,,,,,,,,0.8629,1,0,14,14,0,1,stimuli/blank.png,andere,l,RT11AM,2023-07-31_11h08.57.177,openIAT,2023.1.3,Win32,49.98250612,
,,,,,,l,1,0.7621,,,,,,,,,0.7621,1,0,15,15,8,1,stimuli/blank.png,eure,l,RT11AM,2023-07-31_11h08.57.177,openIAT,2023.1.3,Win32,49.98250612,
,,,,,,a,1,0.8022,,,,,,,,,0.8022,1,0,16,16,3,1,stimuli/blank.png,mir,a,RT11AM,2023-07-31_11h08.57.177,openIAT,2023.1.3,Win32,49.98250612,
,,,,,,a,1,0.7022,,,,,,,,,0.7022,1,0,17,17,9,1,stimuli/blank.png,selbst,a,RT11AM,2023-07-31_11h08.57.177,openIAT,2023.1.3,Win32,49.98250612,
,,,,,,l,0,0.7224,,,,,,,,,0.7224,0,0,18,18,32,1,stimuli/blank.png,fröhlich,a,RT11AM,2023-07-31_11h08.57.177,openIAT,2023.1.3,Win32,49.98250612,
,,,,,,a,1,0.7103,,,,,,,,,0.7103,1,0,19,19,38,1,stimuli/blank.png,human,a,RT11AM,2023-07-31_11h08.57.177,openIAT,2023.1.3,Win32,49.98250612,
,,,,,,a,0,1.7273,,,,,,,,,1.7273,0,0,20,20,13,1,stimuli/blank.png,verlogen,l,RT11AM,2023-07-31_11h08.57.177,openIAT,2023.1.3,Win32,49.98250612,
,,,,,,l,0,0.6518,,,,,,,,,0.6518,0,0,21,21,1,1,stimuli/blank.png,ich,a,RT11AM,2023-07-31_11h08.57.177,openIAT,2023.1.3,Win32,49.98250612,
,,,,,,a,1,0.9022,,,,,,,,,0.9022,1,0,22,22,27,1,stimuli/blank.png,eigene,a,RT11AM,2023-07-31_11h08.57.177,openIAT,2023.1.3,Win32,49.98250612,
,,,,,,l,1,1.0238,,,,,,,,,1.0238,1,0,23,23,11,1,stimuli/blank.png,brutal,l,RT11AM,2023-07-31_11h08.57.177,openIAT,2023.1.3,Win32,49.98250612,
,,,,,,l,1,0.8023,,,,,,,,,0.8023,1,0,24,24,2,1,stimuli/blank.png,ihr,l,RT11AM,2023-07-31_11h08.57.177,openIAT,2023.1.3,Win32,49.98250612,
,,,,,,a,0,0.783,,,,,,,,,0.783,0,0,25,25,37,1,stimuli/blank.png,eitel,l,RT11AM,2023-07-31_11h08.57.177,openIAT,2023.1.3,Win32,49.98250612,
,,,,,,l,0,0.6222,,,,,,,,,0.6222,0,0,26,26,5,1,stimuli/blank.png,meine,a,RT11AM,2023-07-31_11h08.57.177,openIAT,2023.1.3,Win32,49.98250612,
,,,,,,a,0,1.4642,,,,,,,,,1.4642,0,0,27,27,20,1,stimuli/blank.png,andere,l,RT11AM,2023-07-31_11h08.57.177,openIAT,2023.1.3,Win32,49.98250612,
,,,,,,a,1,1.5036,,,,,,,,,1.5036,1,0,28,28,10,1,stimuli/blank.png,aktiv,a,RT11AM,2023-07-31_11h08.57.177,openIAT,2023.1.3,Win32,49.98250612,
,,,,,,a,1,1.6278,,,,,,,,,1.6278,1,0,29,29,23,1,stimuli/blank.png,mir,a,RT11AM,2023-07-31_11h08.57.177,openIAT,2023.1.3,Win32,49.98250612,
,,,,,,l,1,0.9876,,,,,,,,,0.9876,1,0,30,30,22,1,stimuli/blank.png,ihr,l,RT11AM,2023-07-31_11h08.57.177,openIAT,2023.1.3,Win32,49.98250612,
,,,,,,a,1,0.9023,,,,,,,,,0.9023,1,0,31,31,34,1,stimuli/blank.png,gerecht,a,RT11AM,2023-07-31_11h08.57.177,openIAT,2023.1.3,Win32,49.98250612,
,,,,,,l,1,1.0025,,,,,,,,,1.0025,1,0,32,32,33,1,stimuli/blank.png,verlogen,l,RT11AM,2023-07-31_11h08.57.177,openIAT,2023.1.3,Win32,49.98250612,
,,,,,,a,1,0.9232,,,,,,,,,0.9232,1,0,33,33,14,1,stimuli/blank.png,gerecht,a,RT11AM,2023-07-31_11h08.57.177,openIAT,2023.1.3,Win32,49.98250612,
,,,,,,l,1,1.5394,,,,,,,,,1.5394,1,0,34,34,35,1,stimuli/blank.png,träge,l,RT11AM,2023-07-31_11h08.57.177,openIAT,2023.1.3,Win32,49.98250612,
,,,,,,l,1,1.605,,,,,,,,,1.605,1,0,35,35,24,1,stimuli/blank.png,jene,l,RT11AM,2023-07-31_11h08.57.177,openIAT,2023.1.3,Win32,49.98250612,
,,,,,,a,1,0.7305,,,,,,,,,0.7305,1,0,36,36,30,1,stimuli/blank.png,aktiv,a,RT11AM,2023-07-31_11h08.57.177,openIAT,2023.1.3,Win32,49.98250612,
,,,,,,a,0,1.4041,,,,,,,,,1.4041,0,0,37,37,6,1,stimuli/blank.png,euch,l,RT11AM,2023-07-31_11h08.57.177,openIAT,2023.1.3,Win32,49.98250612,
,,,,,,l,1,0.7912,,,,,,,,,0.7912,1,0,38,38,19,1,stimuli/blank.png,lustlos,l,RT11AM,2023-07-31_11h08.57.177,openIAT,2023.1.3,Win32,49.98250612,
,,,,,,a,1,1.0822,,,,,,,,,1.0822,1,0,39,39,7,1,stimuli/blank.png,eigene,a,RT11AM,2023-07-31_11h08.57.177,openIAT,2023.1.3,Win32,49.98250612,
,,,,,,l,1,0.9289,,,,,,,,,0.9289,1,0,0,0,15,1,stimuli/blank.png,meine,l,RT11AM,2023-07-31_11h08.57.177,openIAT,2023.1.3,Win32,49.98250612,
,,,,,,a,1,0.9823,,,,,,,,,0.9823,1,0,1,1,16,1,stimuli/blank.png,euch,a,RT11AM,2023-07-31_11h08.57.177,openIAT,2023.1.3,Win32,49.98250612,
,,,,,,l,1,0.963,,,,,,,,,0.963,1,0,2,2,13,1,stimuli/blank.png,mir,l,RT11AM,2023-07-31_11h08.57.177,openIAT,2023.1.3,Win32,49.98250612,
,,,,,,a,1,0.9228,,,,,,,,,0.9228,1,0,3,3,6,1,stimuli/blank.png,euch,a,RT11AM,2023-07-31_11h08.57.177,openIAT,2023.1.3,Win32,49.98250612,
,,,,,,a,1,0.7424,,,,,,,,,0.7424,1,0,4,4,18,1,stimuli/blank.png,eure,a,RT11AM,2023-07-31_11h08.57.177,openIAT,2023.1.3,Win32,49.98250612,
,,,,,,a,1,1.3039,,,,,,,,,1.3039,1,0,5,5,12,1,stimuli/blank.png,ihr,a,RT11AM,2023-07-31_11h08.57.177,openIAT,2023.1.3,Win32,49.98250612,
,,,,,,l,1,0.9433,,,,,,,,,0.9433,1,0,6,6,7,1,stimuli/blank.png,eigene,l,RT11AM,2023-07-31_11h08.57.177,openIAT,2023.1.3,Win32,49.98250612,
,,,,,,a,1,0.9428,,,,,,,,,0.9428,1,0,7,7,2,1,stimuli/blank.png,ihr,a,RT11AM,2023-07-31_11h08.57.177,openIAT,2023.1.3,Win32,49.98250612,
,,,,,,l,1,1.2242,,,,,,,,,1.2242,1,0,8,8,19,1,stimuli/blank.png,selbst,l,RT11AM,2023-07-31_11h08.57.177,openIAT,2023.1.3,Win32,49.98250612,
,,,,,,l,1,1.525,,,,,,,,,1.525,1,0,9,9,3,1,stimuli/blank.png,mir,l,RT11AM,2023-07-31_11h08.57.177,openIAT,2023.1.3,Win32,49.98250612,
,,,,,,l,1,1.2038,,,,,,,,,1.2038,1,0,10,10,1,1,stimuli/blank.png,ich,l,RT11AM,2023-07-31_11h08.57.177,openIAT,2023.1.3,Win32,49.98250612,
,,,,,,a,1,1.6441,,,,,,,,,1.6441,1,0,11,11,0,1,stimuli/blank.png,andere,a,RT11AM,2023-07-31_11h08.57.177,openIAT,2023.1.3,Win32,49.98250612,
,,,,,,l,0,1.0438,,,,,,,,,1.0438,0,0,12,12,4,1,stimuli/blank.png,jene,a,RT11AM,2023-07-31_11h08.57.177,openIAT,2023.1.3,Win32,49.98250612,
,,,,,,a,1,1.4105,,,,,,,,,1.4105,1,0,13,13,8,1,stimuli/blank.png,eure,a,RT11AM,2023-07-31_11h08.57.177,openIAT,2023.1.3,Win32,49.98250612,
,,,,,,l,1,1.5668,,,,,,,,,1.5668,1,0,14,14,5,1,stimuli/blank.png,meine,l,RT11AM,2023-07-31_11h08.57.177,openIAT,2023.1.3,Win32,49.98250612,
,,,,,,a,1,0.9832,,,,,,,,,0.9832,1,0,15,15,10,1,stimuli/blank.png,andere,a,RT11AM,2023-07-31_11h08.57.177,openIAT,2023.1.3,Win32,49.98250612,
,,,,,,l,1,1.2232,,,,,,,,,1.2232,1,0,16,16,11,1,stimuli/blank.png,ich,l,RT11AM,2023-07-31_11h08.57.177,openIAT,2023.1.3,Win32,49.98250612,
,,,,,,l,1,1.6047,,,,,,,,,1.6047,1,0,17,17,9,1,stimuli/blank.png,selbst,l,RT11AM,2023-07-31_11h08.57.177,openIAT,2023.1.3,Win32,49.98250612,
,,,,,,l,1,2.5657,,,,,,,,,2.5657,1,0,18,18,17,1,stimuli/blank.png,eigene,l,RT11AM,2023-07-31_11h08.57.177,openIAT,2023.1.3,Win32,49.98250612,
,,,,,,a,1,1.0437,,,,,,,,,1.0437,1,0,19,19,14,1,stimuli/blank.png,jene,a,RT11AM,2023-07-31_11h08.57.177,openIAT,2023.1.3,Win32,49.98250612,
,,,,,,a,1,1.7044,,,,,,,,,1.7044,1,0,0,0,2,1,stimuli/blank.png,ihr,a,RT11AM,2023-07-31_11h08.57.177,openIAT,2023.1.3,Win32,49.98250612,
,,,,,,l,1,1.0634,,,,,,,,,1.0634,1,0,1,1,1,1,stimuli/blank.png,ich,l,RT11AM,2023-07-31_11h08.57.177,openIAT,2023.1.3,Win32,49.98250612,
,,,,,,a,1,0.8826,,,,,,,,,0.8826,1,0,2,2,18,1,stimuli/blank.png,human,a,RT11AM,2023-07-31_11h08.57.177,openIAT,2023.1.3,Win32,49.98250612,
,,,,,,l,0,2.266,,,,,,,,,2.266,0,0,3,3,14,1,stimuli/blank.png,gerecht,a,RT11AM,2023-07-31_11h08.57.177,openIAT,2023.1.3,Win32,49.98250612,
,,,,,,a,1,1.1434,,,,,,,,,1.1434,1,0,4,4,8,1,stimuli/blank.png,eure,a,RT11AM,2023-07-31_11h08.57.177,openIAT,2023.1.3,Win32,49.98250612,
,,,,,,l,1,1.3637,,,,,,,,,1.3637,1,0,5,5,17,1,stimuli/blank.png,eitel,l,RT11AM,2023-07-31_11h08.57.177,openIAT,2023.1.3,Win32,49.98250612,
,,,,,,a,0,0.9823,,,,,,,,,0.9823,0,0,6,6,19,1,stimuli/blank.png,lustlos,l,RT11AM,2023-07-31_11h08.57.177,openIAT,2023.1.3,Win32,49.98250612,
,,,,,,a,1,1.9857,,,,,,,,,1.9857,1,0,7,7,0,1,stimuli/blank.png,andere,a,RT11AM,2023-07-31_11h08.57.177,openIAT,2023.1.3,Win32,49.98250612,
,,,,,,a,1,2.2721,,,,,,,,,2.2721,1,0,8,8,12,1,stimuli/blank.png,fröhlich,a,RT11AM,2023-07-31_11h08.57.177,openIAT,2023.1.3,Win32,49.98250612,
,,,,,,a,1,1.224,,,,,,,,,1.224,1,0,9,9,6,1,stimuli/blank.png,euch,a,RT11AM,2023-07-31_11h08.57.177,openIAT,2023.1.3,Win32,49.98250612,
,,,,,,a,1,2.8456,,,,,,,,,2.8456,1,0,10,10,10,1,stimuli/blank.png,aktiv,a,RT11AM,2023-07-31_11h08.57.177,openIAT,2023.1.3,Win32,49.98250612,
,,,,,,l,1,0.9028,,,,,,,,,0.9028,1,0,11,11,13,1,stimuli/blank.png,verlogen,l,RT11AM,2023-07-31_11h08.57.177,openIAT,2023.1.3,Win32,49.98250612,
,,,,,,l,1,1.184,,,,,,,,,1.184,1,0,12,12,11,1,stimuli/blank.png,brutal,l,RT11AM,2023-07-31_11h08.57.177,openIAT,2023.1.3,Win32,49.98250612,
,,,,,,l,1,1.3581,,,,,,,,,1.3581,1,0,13,13,15,1,stimuli/blank.png,träge,l,RT11AM,2023-07-31_11h08.57.177,openIAT,2023.1.3,Win32,49.98250612,
,,,,,,a,0,0.8434,,,,,,,,,0.8434,0,0,14,14,7,1,stimuli/blank.png,eigene,l,RT11AM,2023-07-31_11h08.57.177,openIAT,2023.1.3,Win32,49.98250612,
,,,,,,l,1,1.2836,,,,,,,,,1.2836,1,0,15,15,9,1,stimuli/blank.png,selbst,l,RT11AM,2023-07-31_11h08.57.177,openIAT,2023.1.3,Win32,49.98250612,
,,,,,,l,1,1.0092,,,,,,,,,1.0092,1,0,16,16,3,1,stimuli/blank.png,mir,l,RT11AM,2023-07-31_11h08.57.177,openIAT,2023.1.3,Win32,49.98250612,
,,,,,,l,0,2.7679,,,,,,,,,2.7679,0,0,17,17,4,1,stimuli/blank.png,jene,a,RT11AM,2023-07-31_11h08.57.177,openIAT,2023.1.3,Win32,49.98250612,
,,,,,,l,1,4.7112,,,,,,,,,4.7112,1,0,18,18,5,1,stimuli/blank.png,meine,l,RT11AM,2023-07-31_11h08.57.177,openIAT,2023.1.3,Win32,49.98250612,
,,,,,,a,1,1.0621,,,,,,,,,1.0621,1,0,19,19,16,1,stimuli/blank.png,begabt,a,RT11AM,2023-07-31_11h08.57.177,openIAT,2023.1.3,Win32,49.98250612,
,,,,,,a,1,1.1828,,,,,,,,,1.1828,1,0,0,0,6,1,stimuli/blank.png,euch,a,RT11AM,2023-07-31_11h08.57.177,openIAT,2023.1.3,Win32,49.98250612,
,,,,,,l,1,1.6038,,,,,,,,,1.6038,1,0,1,1,21,1,stimuli/blank.png,ich,l,RT11AM,2023-07-31_11h08.57.177,openIAT,2023.1.3,Win32,49.98250612,
,,,,,,l,1,1.108,,,,,,,,,1.108,1,0,2,2,5,1,stimuli/blank.png,meine,l,RT11AM,2023-07-31_11h08.57.177,openIAT,2023.1.3,Win32,49.98250612,
,,,,,,a,1,1.1637,,,,,,,,,1.1637,1,0,3,3,0,1,stimuli/blank.png,andere,a,RT11AM,2023-07-31_11h08.57.177,openIAT,2023.1.3,Win32,49.98250612,
,,,,,,l,0,1.0235,,,,,,,,,1.0235,0,0,4,4,22,1,stimuli/blank.png,ihr,a,RT11AM,2023-07-31_11h08.57.177,openIAT,2023.1.3,Win32,49.98250612,
,,,,,,l,1,2.2649,,,,,,,,,2.2649,1,0,5,5,9,1,stimuli/blank.png,selbst,l,RT11AM,2023-07-31_11h08.57.177,openIAT,2023.1.3,Win32,49.98250612,
,,,,,,a,1,0.9229,,,,,,,,,0.9229,1,0,6,6,28,1,stimuli/blank.png,eure,a,RT11AM,2023-07-31_11h08.57.177,openIAT,2023.1.3,Win32,49.98250612,
,,,,,,a,1,2.226,,,,,,,,,2.226,1,0,7,7,12,1,stimuli/blank.png,fröhlich,a,RT11AM,2023-07-31_11h08.57.177,openIAT,2023.1.3,Win32,49.98250612,
,,,,,,l,1,0.9663,,,,,,,,,0.9663,1,0,8,8,27,1,stimuli/blank.png,eigene,l,RT11AM,2023-07-31_11h08.57.177,openIAT,2023.1.3,Win32,49.98250612,
,,,,,,a,1,4.9124,,,,,,,,,4.9124,1,0,9,9,14,1,stimuli/blank.png,gerecht,a,RT11AM,2023-07-31_11h08.57.177,openIAT,2023.1.3,Win32,49.98250612,
,,,,,,l,1,1.6654,,,,,,,,,1.6654,1,0,10,10,25,1,stimuli/blank.png,meine,l,RT11AM,2023-07-31_11h08.57.177,openIAT,2023.1.3,Win32,49.98250612,
,,,,,,a,1,0.9855,,,,,,,,,0.9855,1,0,11,11,24,1,stimuli/blank.png,jene,a,RT11AM,2023-07-31_11h08.57.177,openIAT,2023.1.3,Win32,49.98250612,
,,,,,,l,1,4.611,,,,,,,,,4.611,1,0,12,12,15,1,stimuli/blank.png,träge,l,RT11AM,2023-07-31_11h08.57.177,openIAT,2023.1.3,Win32,49.98250612,
,,,,,,a,1,1.1225,,,,,,,,,1.1225,1,0,13,13,4,1,stimuli/blank.png,jene,a,RT11AM,2023-07-31_11h08.57.177,openIAT,2023.1.3,Win32,49.98250612,
,,,,,,a,1,2.307,,,,,,,,,2.307,1,0,14,14,36,1,stimuli/blank.png,begabt,a,RT11AM,2023-07-31_11h08.57.177,openIAT,2023.1.3,Win32,49.98250612,
,,,,,,l,1,1.1825,,,,,,,,,1.1825,1,0,15,15,7,1,stimuli/blank.png,eigene,l,RT11AM,2023-07-31_11h08.57.177,openIAT,2023.1.3,Win32,49.98250612,
,,,,,,a,1,1.0629,,,,,,,,,1.0629,1,0,16,16,20,1,stimuli/blank.png,andere,a,RT11AM,2023-07-31_11h08.57.177,openIAT,2023.1.3,Win32,49.98250612,
,,,,,,l,1,2.9073,,,,,,,,,2.9073,1,0,17,17,31,1,stimuli/blank.png,brutal,l,RT11AM,2023-07-31_11h08.57.177,openIAT,2023.1.3,Win32,49.98250612,
,,,,,,l,1,2.1058,,,,,,,,,2.1058,1,0,18,18,35,1,stimuli/blank.png,träge,l,RT11AM,2023-07-31_11h08.57.177,openIAT,2023.1.3,Win32,49.98250612,
,,,,,,l,1,3.9763,,,,,,,,,3.9763,1,0,19,19,17,1,stimuli/blank.png,eitel,l,RT11AM,2023-07-31_11h08.57.177,openIAT,2023.1.3,Win32,49.98250612,
,,,,,,a,1,1.2439,,,,,,,,,1.2439,1,0,20,20,26,1,stimuli/blank.png,euch,a,RT11AM,2023-07-31_11h08.57.177,openIAT,2023.1.3,Win32,49.98250612,
,,,,,,l,1,1.1841,,,,,,,,,1.1841,1,0,21,21,23,1,stimuli/blank.png,mir,l,RT11AM,2023-07-31_11h08.57.177,openIAT,2023.1.3,Win32,49.98250612,
,,,,,,l,1,1.1841,,,,,,,,,1.1841,1,0,22,22,33,1,stimuli/blank.png,verlogen,l,RT11AM,2023-07-31_11h08.57.177,openIAT,2023.1.3,Win32,49.98250612,
,,,,,,a,1,1.0225,,,,,,,,,1.0225,1,0,23,23,16,1,stimuli/blank.png,begabt,a,RT11AM,2023-07-31_11h08.57.177,openIAT,2023.1.3,Win32,49.98250612,
,,,,,,l,1,4.7115,,,,,,,,,4.7115,1,0,24,24,3,1,stimuli/blank.png,mir,l,RT11AM,2023-07-31_11h08.57.177,openIAT,2023.1.3,Win32,49.98250612,
,,,,,,a,0,0.9222,,,,,,,,,0.9222,0,0,25,25,39,1,stimuli/blank.png,lustlos,l,RT11AM,2023-07-31_11h08.57.177,openIAT,2023.1.3,Win32,49.98250612,
,,,,,,a,1,2.867,,,,,,,,,2.867,1,0,26,26,30,1,stimuli/blank.png,aktiv,a,RT11AM,2023-07-31_11h08.57.177,openIAT,2023.1.3,Win32,49.98250612,
,,,,,,a,1,1.4841,,,,,,,,,1.4841,1,0,27,27,18,1,stimuli/blank.png,human,a,RT11AM,2023-07-31_11h08.57.177,openIAT,2023.1.3,Win32,49.98250612,
,,,,,,l,1,3.0867,,,,,,,,,3.0867,1,0,28,28,37,1,stimuli/blank.png,eitel,l,RT11AM,2023-07-31_11h08.57.177,openIAT,2023.1.3,Win32,49.98250612,
,,,,,,l,1,1.765,,,,,,,,,1.765,1,0,29,29,29,1,stimuli/blank.png,selbst,l,RT11AM,2023-07-31_11h08.57.177,openIAT,2023.1.3,Win32,49.98250612,
,,,,,,a,1,2.1462,,,,,,,,,2.1462,1,0,30,30,10,1,stimuli/blank.png,aktiv,a,RT11AM,2023-07-31_11h08.57.177,openIAT,2023.1.3,Win32,49.98250612,
,,,,,,l,1,4.0908,,,,,,,,,4.0908,1,0,31,31,1,1,stimuli/blank.png,ich,l,RT11AM,2023-07-31_11h08.57.177,openIAT,2023.1.3,Win32,49.98250612,
,,,,,,l,1,2.547,,,,,,,,,2.547,1,0,32,32,19,1,stimuli/blank.png,lustlos,l,RT11AM,2023-07-31_11h08.57.177,openIAT,2023.1.3,Win32,49.98250612,
,,,,,,a,1,1.9252,,,,,,,,,1.9252,1,0,33,33,38,1,stimuli/blank.png,human,a,RT11AM,2023-07-31_11h08.57.177,openIAT,2023.1.3,Win32,49.98250612,
,,,,,,l,0,2.5552,,,,,,,,,2.5552,0,0,34,34,34,1,stimuli/blank.png,gerecht,a,RT11AM,2023-07-31_11h08.57.177,openIAT,2023.1.3,Win32,49.98250612,
,,,,,,a,1,1.0837,,,,,,,,,1.0837,1,0,35,35,8,1,stimuli/blank.png,eure,a,RT11AM,2023-07-31_11h08.57.177,openIAT,2023.1.3,Win32,49.98250612,
,,,,,,a,1,2.051,,,,,,,,,2.051,1,0,36,36,2,1,stimuli/blank.png,ihr,a,RT11AM,2023-07-31_11h08.57.177,openIAT,2023.1.3,Win32,49.98250612,
,,,,,,l,1,1.0439,,,,,,,,,1.0439,1,0,37,37,13,1,stimuli/blank.png,verlogen,l,RT11AM,2023-07-31_11h08.57.177,openIAT,2023.1.3,Win32,49.98250612,
,,,,,,a,1,0.8884,,,,,,,,,0.8884,1,0,38,38,32,1,stimuli/blank.png,fröhlich,a,RT11AM,2023-07-31_11h08.57.177,openIAT,2023.1.3,Win32,49.98250612,
,,,,,,l,1,0.7624,,,,,,,,,0.7624,1,0,39,39,11,1,stimuli/blank.png,brutal,l,RT11AM,2023-07-31_11h08.57.177,openIAT,2023.1.3,Win32,49.98250612,
,,,,,,,,,,,,,,,,,,,,,,,,,,,RT11AM,2023-07-31_11h08.57.177,openIAT,2023.1.3,Win32,49.98250612,
