instr_done_touch.x,instr_done_touch.y,instr_done_touch.leftButton,instr_done_touch.midButton,instr_done_touch.rightButton,instr_done_touch.clicked_name,key_resp.keys,key_resp.corr,key_resp.rt,key_resp.duration,touch_resp.x,touch_resp.y,touch_resp.leftButton,touch_resp.midButton,touch_resp.rightButton,touch_resp.time,touch_resp.clicked_name,rt,corr,trials.thisRepN,trials.thisTrialN,trials.thisN,trials.thisIndex,trials.ran,stimImage,stimWord,CorrAns,participant,date,expName,psychopyVersion,OS,frameRate,return_tic
0.016666667,-0.397777778,1,0,0,instr_done_button,a,1,1.906,,,,,,,,,1.906,1,0,0,0,4,1,stimuli/blank.png,gerecht,a,SL03TO,2023-08-05_14h48.25.422,openIAT,2023.1.3,MacIntel,62.5,
,,,,,,l,1,0.899,,,,,,,,,0.899,1,0,1,1,5,1,stimuli/blank.png,träge,l,SL03TO,2023-08-05_14h48.25.422,openIAT,2023.1.3,MacIntel,62.5,
,,,,,,a,1,0.762,,,,,,,,,0.762,1,0,2,2,0,1,stimuli/blank.png,aktiv,a,SL03TO,2023-08-05_14h48.25.422,openIAT,2023.1.3,MacIntel,62.5,
,,,,,,l,1,1.195,,,,,,,,,1.195,1,0,3,3,11,1,stimuli/blank.png,brutal,l,SL03TO,2023-08-05_14h48.25.422,openIAT,2023.1.3,MacIntel,62.5,
,,,,,,a,0,0.794,,,,,,,,,0.794,0,0,4,4,9,1,stimuli/blank.png,lustlos,l,SL03TO,2023-08-05_14h48.25.422,openIAT,2023.1.3,MacIntel,62.5,
,,,,,,a,1,0.734,,,,,,,,,0.734,1,0,5,5,12,1,stimuli/blank.png,fröhlich,a,SL03TO,2023-08-05_14h48.25.422,openIAT,2023.1.3,MacIntel,62.5,
,,,,,,a,1,0.717,,,,,,,,,0.717,1,0,6,6,2,1,stimuli/blank.png,fröhlich,a,SL03TO,2023-08-05_14h48.25.422,openIAT,2023.1.3,MacIntel,62.5,
,,,,,,l,1,0.617,,,,,,,,,0.617,1,0,7,7,3,1,stimuli/blank.png,verlogen,l,SL03TO,2023-08-05_14h48.25.422,openIAT,2023.1.3,MacIntel,62.5,
,,,,,,l,1,0.998,,,,,,,,,0.998,1,0,8,8,17,1,stimuli/blank.png,eitel,l,SL03TO,2023-08-05_14h48.25.422,openIAT,2023.1.3,MacIntel,62.5,
,,,,,,l,1,0.601,,,,,,,,,0.601,1,0,9,9,13,1,stimuli/blank.png,verlogen,l,SL03TO,2023-08-05_14h48.25.422,openIAT,2023.1.3,MacIntel,62.5,
,,,,,,a,1,0.8,,,,,,,,,0.8,1,0,10,10,6,1,stimuli/blank.png,begabt,a,SL03TO,2023-08-05_14h48.25.422,openIAT,2023.1.3,MacIntel,62.5,
,,,,,,a,1,0.722,,,,,,,,,0.722,1,0,11,11,14,1,stimuli/blank.png,gerecht,a,SL03TO,2023-08-05_14h48.25.422,openIAT,2023.1.3,MacIntel,62.5,
,,,,,,a,1,0.582,,,,,,,,,0.582,1,0,12,12,10,1,stimuli/blank.png,aktiv,a,SL03TO,2023-08-05_14h48.25.422,openIAT,2023.1.3,MacIntel,62.5,
,,,,,,a,0,0.596,,,,,,,,,0.596,0,0,13,13,7,1,stimuli/blank.png,eitel,l,SL03TO,2023-08-05_14h48.25.422,openIAT,2023.1.3,MacIntel,62.5,
,,,,,,a,1,0.725,,,,,,,,,0.725,1,0,14,14,16,1,stimuli/blank.png,begabt,a,SL03TO,2023-08-05_14h48.25.422,openIAT,2023.1.3,MacIntel,62.5,
,,,,,,l,1,0.661,,,,,,,,,0.661,1,0,15,15,1,1,stimuli/blank.png,brutal,l,SL03TO,2023-08-05_14h48.25.422,openIAT,2023.1.3,MacIntel,62.5,
,,,,,,l,1,0.915,,,,,,,,,0.915,1,0,16,16,15,1,stimuli/blank.png,träge,l,SL03TO,2023-08-05_14h48.25.422,openIAT,2023.1.3,MacIntel,62.5,
,,,,,,l,1,0.648,,,,,,,,,0.648,1,0,17,17,19,1,stimuli/blank.png,lustlos,l,SL03TO,2023-08-05_14h48.25.422,openIAT,2023.1.3,MacIntel,62.5,
,,,,,,a,1,1.002,,,,,,,,,1.002,1,0,18,18,18,1,stimuli/blank.png,human,a,SL03TO,2023-08-05_14h48.25.422,openIAT,2023.1.3,MacIntel,62.5,
,,,,,,a,1,0.566,,,,,,,,,0.566,1,0,19,19,8,1,stimuli/blank.png,human,a,SL03TO,2023-08-05_14h48.25.422,openIAT,2023.1.3,MacIntel,62.5,
,,,,,,a,1,0.72,,,,,,,,,0.72,1,0,0,0,13,1,stimuli/blank.png,mir,a,SL03TO,2023-08-05_14h48.25.422,openIAT,2023.1.3,MacIntel,62.5,
,,,,,,l,1,0.679,,,,,,,,,0.679,1,0,1,1,4,1,stimuli/blank.png,jene,l,SL03TO,2023-08-05_14h48.25.422,openIAT,2023.1.3,MacIntel,62.5,
,,,,,,l,1,0.585,,,,,,,,,0.585,1,0,2,2,16,1,stimuli/blank.png,euch,l,SL03TO,2023-08-05_14h48.25.422,openIAT,2023.1.3,MacIntel,62.5,
,,,,,,l,1,0.463,,,,,,,,,0.463,1,0,3,3,18,1,stimuli/blank.png,eure,l,SL03TO,2023-08-05_14h48.25.422,openIAT,2023.1.3,MacIntel,62.5,
,,,,,,a,1,0.444,,,,,,,,,0.444,1,0,4,4,1,1,stimuli/blank.png,ich,a,SL03TO,2023-08-05_14h48.25.422,openIAT,2023.1.3,MacIntel,62.5,
,,,,,,l,1,0.617,,,,,,,,,0.617,1,0,5,5,14,1,stimuli/blank.png,jene,l,SL03TO,2023-08-05_14h48.25.422,openIAT,2023.1.3,MacIntel,62.5,
,,,,,,l,0,0.469,,,,,,,,,0.469,0,0,6,6,15,1,stimuli/blank.png,meine,a,SL03TO,2023-08-05_14h48.25.422,openIAT,2023.1.3,MacIntel,62.5,
,,,,,,l,1,0.729,,,,,,,,,0.729,1,0,7,7,10,1,stimuli/blank.png,andere,l,SL03TO,2023-08-05_14h48.25.422,openIAT,2023.1.3,MacIntel,62.5,
,,,,,,a,1,0.568,,,,,,,,,0.568,1,0,8,8,11,1,stimuli/blank.png,ich,a,SL03TO,2023-08-05_14h48.25.422,openIAT,2023.1.3,MacIntel,62.5,
,,,,,,a,1,0.734,,,,,,,,,0.734,1,0,9,9,19,1,stimuli/blank.png,selbst,a,SL03TO,2023-08-05_14h48.25.422,openIAT,2023.1.3,MacIntel,62.5,
,,,,,,l,1,0.534,,,,,,,,,0.534,1,0,10,10,8,1,stimuli/blank.png,eure,l,SL03TO,2023-08-05_14h48.25.422,openIAT,2023.1.3,MacIntel,62.5,
,,,,,,l,1,0.654,,,,,,,,,0.654,1,0,11,11,6,1,stimuli/blank.png,euch,l,SL03TO,2023-08-05_14h48.25.422,openIAT,2023.1.3,MacIntel,62.5,
,,,,,,a,0,0.585,,,,,,,,,0.585,0,0,12,12,0,1,stimuli/blank.png,andere,l,SL03TO,2023-08-05_14h48.25.422,openIAT,2023.1.3,MacIntel,62.5,
,,,,,,a,1,0.901,,,,,,,,,0.901,1,0,13,13,7,1,stimuli/blank.png,eigene,a,SL03TO,2023-08-05_14h48.25.422,openIAT,2023.1.3,MacIntel,62.5,
,,,,,,a,1,0.766,,,,,,,,,0.766,1,0,14,14,9,1,stimuli/blank.png,selbst,a,SL03TO,2023-08-05_14h48.25.422,openIAT,2023.1.3,MacIntel,62.5,
,,,,,,a,1,0.701,,,,,,,,,0.701,1,0,15,15,5,1,stimuli/blank.png,meine,a,SL03TO,2023-08-05_14h48.25.422,openIAT,2023.1.3,MacIntel,62.5,
,,,,,,a,1,0.587,,,,,,,,,0.587,1,0,16,16,3,1,stimuli/blank.png,mir,a,SL03TO,2023-08-05_14h48.25.422,openIAT,2023.1.3,MacIntel,62.5,
,,,,,,a,1,0.696,,,,,,,,,0.696,1,0,17,17,17,1,stimuli/blank.png,eigene,a,SL03TO,2023-08-05_14h48.25.422,openIAT,2023.1.3,MacIntel,62.5,
,,,,,,l,1,0.649,,,,,,,,,0.649,1,0,18,18,12,1,stimuli/blank.png,ihr,l,SL03TO,2023-08-05_14h48.25.422,openIAT,2023.1.3,MacIntel,62.5,
,,,,,,l,1,0.5,,,,,,,,,0.5,1,0,19,19,2,1,stimuli/blank.png,ihr,l,SL03TO,2023-08-05_14h48.25.422,openIAT,2023.1.3,MacIntel,62.5,
,,,,,,a,1,0.709,,,,,,,,,0.709,1,0,0,0,1,1,stimuli/blank.png,ich,a,SL03TO,2023-08-05_14h48.25.422,openIAT,2023.1.3,MacIntel,62.5,
,,,,,,a,1,0.668,,,,,,,,,0.668,1,0,1,1,18,1,stimuli/blank.png,human,a,SL03TO,2023-08-05_14h48.25.422,openIAT,2023.1.3,MacIntel,62.5,
,,,,,,l,1,0.645,,,,,,,,,0.645,1,0,2,2,13,1,stimuli/blank.png,verlogen,l,SL03TO,2023-08-05_14h48.25.422,openIAT,2023.1.3,MacIntel,62.5,
,,,,,,l,1,0.843,,,,,,,,,0.843,1,0,3,3,15,1,stimuli/blank.png,träge,l,SL03TO,2023-08-05_14h48.25.422,openIAT,2023.1.3,MacIntel,62.5,
,,,,,,a,1,0.728,,,,,,,,,0.728,1,0,4,4,16,1,stimuli/blank.png,begabt,a,SL03TO,2023-08-05_14h48.25.422,openIAT,2023.1.3,MacIntel,62.5,
,,,,,,a,1,0.813,,,,,,,,,0.813,1,0,5,5,5,1,stimuli/blank.png,meine,a,SL03TO,2023-08-05_14h48.25.422,openIAT,2023.1.3,MacIntel,62.5,
,,,,,,a,1,0.69,,,,,,,,,0.69,1,0,6,6,10,1,stimuli/blank.png,aktiv,a,SL03TO,2023-08-05_14h48.25.422,openIAT,2023.1.3,MacIntel,62.5,
,,,,,,a,0,0.63,,,,,,,,,0.63,0,0,7,7,19,1,stimuli/blank.png,lustlos,l,SL03TO,2023-08-05_14h48.25.422,openIAT,2023.1.3,MacIntel,62.5,
,,,,,,l,1,1.151,,,,,,,,,1.151,1,0,8,8,4,1,stimuli/blank.png,jene,l,SL03TO,2023-08-05_14h48.25.422,openIAT,2023.1.3,MacIntel,62.5,
,,,,,,a,1,0.736,,,,,,,,,0.736,1,0,9,9,3,1,stimuli/blank.png,mir,a,SL03TO,2023-08-05_14h48.25.422,openIAT,2023.1.3,MacIntel,62.5,
,,,,,,l,1,0.684,,,,,,,,,0.684,1,0,10,10,6,1,stimuli/blank.png,euch,l,SL03TO,2023-08-05_14h48.25.422,openIAT,2023.1.3,MacIntel,62.5,
,,,,,,l,1,0.664,,,,,,,,,0.664,1,0,11,11,2,1,stimuli/blank.png,ihr,l,SL03TO,2023-08-05_14h48.25.422,openIAT,2023.1.3,MacIntel,62.5,
,,,,,,l,1,0.59,,,,,,,,,0.59,1,0,12,12,11,1,stimuli/blank.png,brutal,l,SL03TO,2023-08-05_14h48.25.422,openIAT,2023.1.3,MacIntel,62.5,
,,,,,,l,1,0.602,,,,,,,,,0.602,1,0,13,13,8,1,stimuli/blank.png,eure,l,SL03TO,2023-08-05_14h48.25.422,openIAT,2023.1.3,MacIntel,62.5,
,,,,,,a,1,0.655,,,,,,,,,0.655,1,0,14,14,12,1,stimuli/blank.png,fröhlich,a,SL03TO,2023-08-05_14h48.25.422,openIAT,2023.1.3,MacIntel,62.5,
,,,,,,a,0,0.595,,,,,,,,,0.595,0,0,15,15,17,1,stimuli/blank.png,eitel,l,SL03TO,2023-08-05_14h48.25.422,openIAT,2023.1.3,MacIntel,62.5,
,,,,,,a,1,0.8,,,,,,,,,0.8,1,0,16,16,14,1,stimuli/blank.png,gerecht,a,SL03TO,2023-08-05_14h48.25.422,openIAT,2023.1.3,MacIntel,62.5,
,,,,,,l,1,0.729,,,,,,,,,0.729,1,0,17,17,0,1,stimuli/blank.png,andere,l,SL03TO,2023-08-05_14h48.25.422,openIAT,2023.1.3,MacIntel,62.5,
,,,,,,a,1,0.713,,,,,,,,,0.713,1,0,18,18,7,1,stimuli/blank.png,eigene,a,SL03TO,2023-08-05_14h48.25.422,openIAT,2023.1.3,MacIntel,62.5,
,,,,,,a,1,0.611,,,,,,,,,0.611,1,0,19,19,9,1,stimuli/blank.png,selbst,a,SL03TO,2023-08-05_14h48.25.422,openIAT,2023.1.3,MacIntel,62.5,
,,,,,,l,1,1.321,,,,,,,,,1.321,1,0,0,0,20,1,stimuli/blank.png,andere,l,SL03TO,2023-08-05_14h48.25.422,openIAT,2023.1.3,MacIntel,62.5,
,,,,,,a,1,0.815,,,,,,,,,0.815,1,0,1,1,14,1,stimuli/blank.png,gerecht,a,SL03TO,2023-08-05_14h48.25.422,openIAT,2023.1.3,MacIntel,62.5,
,,,,,,a,1,0.821,,,,,,,,,0.821,1,0,2,2,27,1,stimuli/blank.png,eigene,a,SL03TO,2023-08-05_14h48.25.422,openIAT,2023.1.3,MacIntel,62.5,
,,,,,,l,1,0.787,,,,,,,,,0.787,1,0,3,3,35,1,stimuli/blank.png,träge,l,SL03TO,2023-08-05_14h48.25.422,openIAT,2023.1.3,MacIntel,62.5,
,,,,,,l,1,0.887,,,,,,,,,0.887,1,0,4,4,0,1,stimuli/blank.png,andere,l,SL03TO,2023-08-05_14h48.25.422,openIAT,2023.1.3,MacIntel,62.5,
,,,,,,a,1,0.622,,,,,,,,,0.622,1,0,5,5,32,1,stimuli/blank.png,fröhlich,a,SL03TO,2023-08-05_14h48.25.422,openIAT,2023.1.3,MacIntel,62.5,
,,,,,,l,1,0.902,,,,,,,,,0.902,1,0,6,6,6,1,stimuli/blank.png,euch,l,SL03TO,2023-08-05_14h48.25.422,openIAT,2023.1.3,MacIntel,62.5,
,,,,,,a,1,0.847,,,,,,,,,0.847,1,0,7,7,25,1,stimuli/blank.png,meine,a,SL03TO,2023-08-05_14h48.25.422,openIAT,2023.1.3,MacIntel,62.5,
,,,,,,a,1,0.647,,,,,,,,,0.647,1,0,8,8,10,1,stimuli/blank.png,aktiv,a,SL03TO,2023-08-05_14h48.25.422,openIAT,2023.1.3,MacIntel,62.5,
,,,,,,a,1,0.95,,,,,,,,,0.95,1,0,9,9,7,1,stimuli/blank.png,eigene,a,SL03TO,2023-08-05_14h48.25.422,openIAT,2023.1.3,MacIntel,62.5,
,,,,,,a,1,0.752,,,,,,,,,0.752,1,0,10,10,5,1,stimuli/blank.png,meine,a,SL03TO,2023-08-05_14h48.25.422,openIAT,2023.1.3,MacIntel,62.5,
,,,,,,l,1,0.654,,,,,,,,,0.654,1,0,11,11,13,1,stimuli/blank.png,verlogen,l,SL03TO,2023-08-05_14h48.25.422,openIAT,2023.1.3,MacIntel,62.5,
,,,,,,a,1,0.736,,,,,,,,,0.736,1,0,12,12,3,1,stimuli/blank.png,mir,a,SL03TO,2023-08-05_14h48.25.422,openIAT,2023.1.3,MacIntel,62.5,
,,,,,,l,1,0.7,,,,,,,,,0.7,1,0,13,13,37,1,stimuli/blank.png,eitel,l,SL03TO,2023-08-05_14h48.25.422,openIAT,2023.1.3,MacIntel,62.5,
,,,,,,l,1,0.703,,,,,,,,,0.703,1,0,14,14,22,1,stimuli/blank.png,ihr,l,SL03TO,2023-08-05_14h48.25.422,openIAT,2023.1.3,MacIntel,62.5,
,,,,,,l,1,0.597,,,,,,,,,0.597,1,0,15,15,4,1,stimuli/blank.png,jene,l,SL03TO,2023-08-05_14h48.25.422,openIAT,2023.1.3,MacIntel,62.5,
,,,,,,a,1,0.819,,,,,,,,,0.819,1,0,16,16,23,1,stimuli/blank.png,mir,a,SL03TO,2023-08-05_14h48.25.422,openIAT,2023.1.3,MacIntel,62.5,
,,,,,,l,1,0.6,,,,,,,,,0.6,1,0,17,17,28,1,stimuli/blank.png,eure,l,SL03TO,2023-08-05_14h48.25.422,openIAT,2023.1.3,MacIntel,62.5,
,,,,,,a,1,0.784,,,,,,,,,0.784,1,0,18,18,18,1,stimuli/blank.png,human,a,SL03TO,2023-08-05_14h48.25.422,openIAT,2023.1.3,MacIntel,62.5,
,,,,,,a,1,0.512,,,,,,,,,0.512,1,0,19,19,21,1,stimuli/blank.png,ich,a,SL03TO,2023-08-05_14h48.25.422,openIAT,2023.1.3,MacIntel,62.5,
,,,,,,l,1,0.648,,,,,,,,,0.648,1,0,20,20,19,1,stimuli/blank.png,lustlos,l,SL03TO,2023-08-05_14h48.25.422,openIAT,2023.1.3,MacIntel,62.5,
,,,,,,l,1,0.735,,,,,,,,,0.735,1,0,21,21,8,1,stimuli/blank.png,eure,l,SL03TO,2023-08-05_14h48.25.422,openIAT,2023.1.3,MacIntel,62.5,
,,,,,,a,1,0.556,,,,,,,,,0.556,1,0,22,22,29,1,stimuli/blank.png,selbst,a,SL03TO,2023-08-05_14h48.25.422,openIAT,2023.1.3,MacIntel,62.5,
,,,,,,l,0,0.646,,,,,,,,,0.646,0,0,23,23,16,1,stimuli/blank.png,begabt,a,SL03TO,2023-08-05_14h48.25.422,openIAT,2023.1.3,MacIntel,62.5,
,,,,,,a,1,0.621,,,,,,,,,0.621,1,0,24,24,30,1,stimuli/blank.png,aktiv,a,SL03TO,2023-08-05_14h48.25.422,openIAT,2023.1.3,MacIntel,62.5,
,,,,,,l,1,0.728,,,,,,,,,0.728,1,0,25,25,17,1,stimuli/blank.png,eitel,l,SL03TO,2023-08-05_14h48.25.422,openIAT,2023.1.3,MacIntel,62.5,
,,,,,,l,1,0.64,,,,,,,,,0.64,1,0,26,26,31,1,stimuli/blank.png,brutal,l,SL03TO,2023-08-05_14h48.25.422,openIAT,2023.1.3,MacIntel,62.5,
,,,,,,l,1,0.682,,,,,,,,,0.682,1,0,27,27,15,1,stimuli/blank.png,träge,l,SL03TO,2023-08-05_14h48.25.422,openIAT,2023.1.3,MacIntel,62.5,
,,,,,,a,1,0.664,,,,,,,,,0.664,1,0,28,28,38,1,stimuli/blank.png,human,a,SL03TO,2023-08-05_14h48.25.422,openIAT,2023.1.3,MacIntel,62.5,
,,,,,,a,1,0.835,,,,,,,,,0.835,1,0,29,29,34,1,stimuli/blank.png,gerecht,a,SL03TO,2023-08-05_14h48.25.422,openIAT,2023.1.3,MacIntel,62.5,
,,,,,,a,1,0.764,,,,,,,,,0.764,1,0,30,30,36,1,stimuli/blank.png,begabt,a,SL03TO,2023-08-05_14h48.25.422,openIAT,2023.1.3,MacIntel,62.5,
,,,,,,l,1,0.761,,,,,,,,,0.761,1,0,31,31,2,1,stimuli/blank.png,ihr,l,SL03TO,2023-08-05_14h48.25.422,openIAT,2023.1.3,MacIntel,62.5,
,,,,,,l,1,0.836,,,,,,,,,0.836,1,0,32,32,39,1,stimuli/blank.png,lustlos,l,SL03TO,2023-08-05_14h48.25.422,openIAT,2023.1.3,MacIntel,62.5,
,,,,,,l,1,0.78,,,,,,,,,0.78,1,0,33,33,26,1,stimuli/blank.png,euch,l,SL03TO,2023-08-05_14h48.25.422,openIAT,2023.1.3,MacIntel,62.5,
,,,,,,l,1,0.613,,,,,,,,,0.613,1,0,34,34,33,1,stimuli/blank.png,verlogen,l,SL03TO,2023-08-05_14h48.25.422,openIAT,2023.1.3,MacIntel,62.5,
,,,,,,a,1,0.68,,,,,,,,,0.68,1,0,35,35,1,1,stimuli/blank.png,ich,a,SL03TO,2023-08-05_14h48.25.422,openIAT,2023.1.3,MacIntel,62.5,
,,,,,,l,1,0.585,,,,,,,,,0.585,1,0,36,36,11,1,stimuli/blank.png,brutal,l,SL03TO,2023-08-05_14h48.25.422,openIAT,2023.1.3,MacIntel,62.5,
,,,,,,a,1,0.635,,,,,,,,,0.635,1,0,37,37,9,1,stimuli/blank.png,selbst,a,SL03TO,2023-08-05_14h48.25.422,openIAT,2023.1.3,MacIntel,62.5,
,,,,,,l,1,0.632,,,,,,,,,0.632,1,0,38,38,24,1,stimuli/blank.png,jene,l,SL03TO,2023-08-05_14h48.25.422,openIAT,2023.1.3,MacIntel,62.5,
,,,,,,a,1,0.652,,,,,,,,,0.652,1,0,39,39,12,1,stimuli/blank.png,fröhlich,a,SL03TO,2023-08-05_14h48.25.422,openIAT,2023.1.3,MacIntel,62.5,
,,,,,,l,1,1.239,,,,,,,,,1.239,1,0,0,0,11,1,stimuli/blank.png,ich,l,SL03TO,2023-08-05_14h48.25.422,openIAT,2023.1.3,MacIntel,62.5,
,,,,,,a,1,0.679,,,,,,,,,0.679,1,0,1,1,10,1,stimuli/blank.png,andere,a,SL03TO,2023-08-05_14h48.25.422,openIAT,2023.1.3,MacIntel,62.5,
,,,,,,l,1,0.713,,,,,,,,,0.713,1,0,2,2,3,1,stimuli/blank.png,mir,l,SL03TO,2023-08-05_14h48.25.422,openIAT,2023.1.3,MacIntel,62.5,
,,,,,,a,1,0.734,,,,,,,,,0.734,1,0,3,3,2,1,stimuli/blank.png,ihr,a,SL03TO,2023-08-05_14h48.25.422,openIAT,2023.1.3,MacIntel,62.5,
,,,,,,l,1,0.662,,,,,,,,,0.662,1,0,4,4,13,1,stimuli/blank.png,mir,l,SL03TO,2023-08-05_14h48.25.422,openIAT,2023.1.3,MacIntel,62.5,
,,,,,,a,1,0.722,,,,,,,,,0.722,1,0,5,5,18,1,stimuli/blank.png,eure,a,SL03TO,2023-08-05_14h48.25.422,openIAT,2023.1.3,MacIntel,62.5,
,,,,,,l,0,1.28,,,,,,,,,1.28,0,0,6,6,12,1,stimuli/blank.png,ihr,a,SL03TO,2023-08-05_14h48.25.422,openIAT,2023.1.3,MacIntel,62.5,
,,,,,,l,1,0.681,,,,,,,,,0.681,1,0,7,7,17,1,stimuli/blank.png,eigene,l,SL03TO,2023-08-05_14h48.25.422,openIAT,2023.1.3,MacIntel,62.5,
,,,,,,a,1,0.819,,,,,,,,,0.819,1,0,8,8,0,1,stimuli/blank.png,andere,a,SL03TO,2023-08-05_14h48.25.422,openIAT,2023.1.3,MacIntel,62.5,
,,,,,,l,1,0.885,,,,,,,,,0.885,1,0,9,9,19,1,stimuli/blank.png,selbst,l,SL03TO,2023-08-05_14h48.25.422,openIAT,2023.1.3,MacIntel,62.5,
,,,,,,a,1,0.637,,,,,,,,,0.637,1,0,10,10,16,1,stimuli/blank.png,euch,a,SL03TO,2023-08-05_14h48.25.422,openIAT,2023.1.3,MacIntel,62.5,
,,,,,,l,0,1.47,,,,,,,,,1.47,0,0,11,11,4,1,stimuli/blank.png,jene,a,SL03TO,2023-08-05_14h48.25.422,openIAT,2023.1.3,MacIntel,62.5,
,,,,,,a,1,1.023,,,,,,,,,1.023,1,0,12,12,8,1,stimuli/blank.png,eure,a,SL03TO,2023-08-05_14h48.25.422,openIAT,2023.1.3,MacIntel,62.5,
,,,,,,l,1,0.852,,,,,,,,,0.852,1,0,13,13,15,1,stimuli/blank.png,meine,l,SL03TO,2023-08-05_14h48.25.422,openIAT,2023.1.3,MacIntel,62.5,
,,,,,,l,1,0.633,,,,,,,,,0.633,1,0,14,14,5,1,stimuli/blank.png,meine,l,SL03TO,2023-08-05_14h48.25.422,openIAT,2023.1.3,MacIntel,62.5,
,,,,,,a,1,1.168,,,,,,,,,1.168,1,0,15,15,6,1,stimuli/blank.png,euch,a,SL03TO,2023-08-05_14h48.25.422,openIAT,2023.1.3,MacIntel,62.5,
,,,,,,l,1,0.679,,,,,,,,,0.679,1,0,16,16,1,1,stimuli/blank.png,ich,l,SL03TO,2023-08-05_14h48.25.422,openIAT,2023.1.3,MacIntel,62.5,
,,,,,,a,1,0.822,,,,,,,,,0.822,1,0,17,17,14,1,stimuli/blank.png,jene,a,SL03TO,2023-08-05_14h48.25.422,openIAT,2023.1.3,MacIntel,62.5,
,,,,,,l,1,0.737,,,,,,,,,0.737,1,0,18,18,9,1,stimuli/blank.png,selbst,l,SL03TO,2023-08-05_14h48.25.422,openIAT,2023.1.3,MacIntel,62.5,
,,,,,,l,1,0.952,,,,,,,,,0.952,1,0,19,19,7,1,stimuli/blank.png,eigene,l,SL03TO,2023-08-05_14h48.25.422,openIAT,2023.1.3,MacIntel,62.5,
,,,,,,l,1,1.337,,,,,,,,,1.337,1,0,0,0,1,1,stimuli/blank.png,ich,l,SL03TO,2023-08-05_14h48.25.422,openIAT,2023.1.3,MacIntel,62.5,
,,,,,,a,0,2.296,,,,,,,,,2.296,0,0,1,1,13,1,stimuli/blank.png,verlogen,l,SL03TO,2023-08-05_14h48.25.422,openIAT,2023.1.3,MacIntel,62.5,
,,,,,,a,0,1.33,,,,,,,,,1.33,0,0,2,2,5,1,stimuli/blank.png,meine,l,SL03TO,2023-08-05_14h48.25.422,openIAT,2023.1.3,MacIntel,62.5,
,,,,,,a,1,2.258,,,,,,,,,2.258,1,0,3,3,12,1,stimuli/blank.png,fröhlich,a,SL03TO,2023-08-05_14h48.25.422,openIAT,2023.1.3,MacIntel,62.5,
,,,,,,a,1,1.563,,,,,,,,,1.563,1,0,4,4,2,1,stimuli/blank.png,ihr,a,SL03TO,2023-08-05_14h48.25.422,openIAT,2023.1.3,MacIntel,62.5,
,,,,,,l,0,2.021,,,,,,,,,2.021,0,0,5,5,8,1,stimuli/blank.png,eure,a,SL03TO,2023-08-05_14h48.25.422,openIAT,2023.1.3,MacIntel,62.5,
,,,,,,a,1,1.536,,,,,,,,,1.536,1,0,6,6,18,1,stimuli/blank.png,human,a,SL03TO,2023-08-05_14h48.25.422,openIAT,2023.1.3,MacIntel,62.5,
,,,,,,a,1,1.033,,,,,,,,,1.033,1,0,7,7,4,1,stimuli/blank.png,jene,a,SL03TO,2023-08-05_14h48.25.422,openIAT,2023.1.3,MacIntel,62.5,
,,,,,,a,1,0.718,,,,,,,,,0.718,1,0,8,8,0,1,stimuli/blank.png,andere,a,SL03TO,2023-08-05_14h48.25.422,openIAT,2023.1.3,MacIntel,62.5,
,,,,,,a,1,1.014,,,,,,,,,1.014,1,0,9,9,6,1,stimuli/blank.png,euch,a,SL03TO,2023-08-05_14h48.25.422,openIAT,2023.1.3,MacIntel,62.5,
,,,,,,l,1,0.754,,,,,,,,,0.754,1,0,10,10,3,1,stimuli/blank.png,mir,l,SL03TO,2023-08-05_14h48.25.422,openIAT,2023.1.3,MacIntel,62.5,
,,,,,,l,1,0.74,,,,,,,,,0.74,1,0,11,11,15,1,stimuli/blank.png,träge,l,SL03TO,2023-08-05_14h48.25.422,openIAT,2023.1.3,MacIntel,62.5,
,,,,,,l,1,0.68,,,,,,,,,0.68,1,0,12,12,19,1,stimuli/blank.png,lustlos,l,SL03TO,2023-08-05_14h48.25.422,openIAT,2023.1.3,MacIntel,62.5,
,,,,,,a,1,1.003,,,,,,,,,1.003,1,0,13,13,16,1,stimuli/blank.png,begabt,a,SL03TO,2023-08-05_14h48.25.422,openIAT,2023.1.3,MacIntel,62.5,
,,,,,,l,1,1.515,,,,,,,,,1.515,1,0,14,14,9,1,stimuli/blank.png,selbst,l,SL03TO,2023-08-05_14h48.25.422,openIAT,2023.1.3,MacIntel,62.5,
,,,,,,l,1,0.746,,,,,,,,,0.746,1,0,15,15,17,1,stimuli/blank.png,eitel,l,SL03TO,2023-08-05_14h48.25.422,openIAT,2023.1.3,MacIntel,62.5,
,,,,,,a,1,0.685,,,,,,,,,0.685,1,0,16,16,10,1,stimuli/blank.png,aktiv,a,SL03TO,2023-08-05_14h48.25.422,openIAT,2023.1.3,MacIntel,62.5,
,,,,,,l,1,0.812,,,,,,,,,0.812,1,0,17,17,11,1,stimuli/blank.png,brutal,l,SL03TO,2023-08-05_14h48.25.422,openIAT,2023.1.3,MacIntel,62.5,
,,,,,,l,1,1.597,,,,,,,,,1.597,1,0,18,18,7,1,stimuli/blank.png,eigene,l,SL03TO,2023-08-05_14h48.25.422,openIAT,2023.1.3,MacIntel,62.5,
,,,,,,a,1,0.931,,,,,,,,,0.931,1,0,19,19,14,1,stimuli/blank.png,gerecht,a,SL03TO,2023-08-05_14h48.25.422,openIAT,2023.1.3,MacIntel,62.5,
,,,,,,a,1,1.034,,,,,,,,,1.034,1,0,0,0,0,1,stimuli/blank.png,andere,a,SL03TO,2023-08-05_14h48.25.422,openIAT,2023.1.3,MacIntel,62.5,
,,,,,,l,1,1.012,,,,,,,,,1.012,1,0,1,1,29,1,stimuli/blank.png,selbst,l,SL03TO,2023-08-05_14h48.25.422,openIAT,2023.1.3,MacIntel,62.5,
,,,,,,l,1,0.886,,,,,,,,,0.886,1,0,2,2,31,1,stimuli/blank.png,brutal,l,SL03TO,2023-08-05_14h48.25.422,openIAT,2023.1.3,MacIntel,62.5,
,,,,,,l,1,0.722,,,,,,,,,0.722,1,0,3,3,13,1,stimuli/blank.png,verlogen,l,SL03TO,2023-08-05_14h48.25.422,openIAT,2023.1.3,MacIntel,62.5,
,,,,,,l,1,0.803,,,,,,,,,0.803,1,0,4,4,35,1,stimuli/blank.png,träge,l,SL03TO,2023-08-05_14h48.25.422,openIAT,2023.1.3,MacIntel,62.5,
,,,,,,a,1,1.181,,,,,,,,,1.181,1,0,5,5,28,1,stimuli/blank.png,eure,a,SL03TO,2023-08-05_14h48.25.422,openIAT,2023.1.3,MacIntel,62.5,
,,,,,,a,1,0.788,,,,,,,,,0.788,1,0,6,6,14,1,stimuli/blank.png,gerecht,a,SL03TO,2023-08-05_14h48.25.422,openIAT,2023.1.3,MacIntel,62.5,
,,,,,,l,1,0.622,,,,,,,,,0.622,1,0,7,7,5,1,stimuli/blank.png,meine,l,SL03TO,2023-08-05_14h48.25.422,openIAT,2023.1.3,MacIntel,62.5,
,,,,,,l,1,0.632,,,,,,,,,0.632,1,0,8,8,33,1,stimuli/blank.png,verlogen,l,SL03TO,2023-08-05_14h48.25.422,openIAT,2023.1.3,MacIntel,62.5,
,,,,,,l,1,0.88,,,,,,,,,0.88,1,0,9,9,1,1,stimuli/blank.png,ich,l,SL03TO,2023-08-05_14h48.25.422,openIAT,2023.1.3,MacIntel,62.5,
,,,,,,a,1,0.707,,,,,,,,,0.707,1,0,10,10,38,1,stimuli/blank.png,human,a,SL03TO,2023-08-05_14h48.25.422,openIAT,2023.1.3,MacIntel,62.5,
,,,,,,a,1,0.582,,,,,,,,,0.582,1,0,11,11,18,1,stimuli/blank.png,human,a,SL03TO,2023-08-05_14h48.25.422,openIAT,2023.1.3,MacIntel,62.5,
,,,,,,l,0,0.704,,,,,,,,,0.704,0,0,12,12,2,1,stimuli/blank.png,ihr,a,SL03TO,2023-08-05_14h48.25.422,openIAT,2023.1.3,MacIntel,62.5,
,,,,,,l,1,0.686,,,,,,,,,0.686,1,0,13,13,25,1,stimuli/blank.png,meine,l,SL03TO,2023-08-05_14h48.25.422,openIAT,2023.1.3,MacIntel,62.5,
,,,,,,l,1,0.748,,,,,,,,,0.748,1,0,14,14,19,1,stimuli/blank.png,lustlos,l,SL03TO,2023-08-05_14h48.25.422,openIAT,2023.1.3,MacIntel,62.5,
,,,,,,a,1,0.798,,,,,,,,,0.798,1,0,15,15,34,1,stimuli/blank.png,gerecht,a,SL03TO,2023-08-05_14h48.25.422,openIAT,2023.1.3,MacIntel,62.5,
,,,,,,l,0,0.902,,,,,,,,,0.902,0,0,16,16,26,1,stimuli/blank.png,euch,a,SL03TO,2023-08-05_14h48.25.422,openIAT,2023.1.3,MacIntel,62.5,
,,,,,,l,1,1.08,,,,,,,,,1.08,1,0,17,17,7,1,stimuli/blank.png,eigene,l,SL03TO,2023-08-05_14h48.25.422,openIAT,2023.1.3,MacIntel,62.5,
,,,,,,a,1,1.179,,,,,,,,,1.179,1,0,18,18,30,1,stimuli/blank.png,aktiv,a,SL03TO,2023-08-05_14h48.25.422,openIAT,2023.1.3,MacIntel,62.5,
,,,,,,l,1,0.667,,,,,,,,,0.667,1,0,19,19,15,1,stimuli/blank.png,träge,l,SL03TO,2023-08-05_14h48.25.422,openIAT,2023.1.3,MacIntel,62.5,
,,,,,,a,1,0.668,,,,,,,,,0.668,1,0,20,20,10,1,stimuli/blank.png,aktiv,a,SL03TO,2023-08-05_14h48.25.422,openIAT,2023.1.3,MacIntel,62.5,
,,,,,,l,1,0.784,,,,,,,,,0.784,1,0,21,21,37,1,stimuli/blank.png,eitel,l,SL03TO,2023-08-05_14h48.25.422,openIAT,2023.1.3,MacIntel,62.5,
,,,,,,a,1,1.096,,,,,,,,,1.096,1,0,22,22,4,1,stimuli/blank.png,jene,a,SL03TO,2023-08-05_14h48.25.422,openIAT,2023.1.3,MacIntel,62.5,
,,,,,,l,1,0.629,,,,,,,,,0.629,1,0,23,23,9,1,stimuli/blank.png,selbst,l,SL03TO,2023-08-05_14h48.25.422,openIAT,2023.1.3,MacIntel,62.5,
,,,,,,a,1,0.695,,,,,,,,,0.695,1,0,24,24,22,1,stimuli/blank.png,ihr,a,SL03TO,2023-08-05_14h48.25.422,openIAT,2023.1.3,MacIntel,62.5,
,,,,,,a,1,1.472,,,,,,,,,1.472,1,0,25,25,6,1,stimuli/blank.png,euch,a,SL03TO,2023-08-05_14h48.25.422,openIAT,2023.1.3,MacIntel,62.5,
,,,,,,l,1,0.755,,,,,,,,,0.755,1,0,26,26,23,1,stimuli/blank.png,mir,l,SL03TO,2023-08-05_14h48.25.422,openIAT,2023.1.3,MacIntel,62.5,
,,,,,,a,1,0.795,,,,,,,,,0.795,1,0,27,27,8,1,stimuli/blank.png,eure,a,SL03TO,2023-08-05_14h48.25.422,openIAT,2023.1.3,MacIntel,62.5,
,,,,,,l,1,0.651,,,,,,,,,0.651,1,0,28,28,17,1,stimuli/blank.png,eitel,l,SL03TO,2023-08-05_14h48.25.422,openIAT,2023.1.3,MacIntel,62.5,
,,,,,,l,1,0.696,,,,,,,,,0.696,1,0,29,29,11,1,stimuli/blank.png,brutal,l,SL03TO,2023-08-05_14h48.25.422,openIAT,2023.1.3,MacIntel,62.5,
,,,,,,l,1,0.838,,,,,,,,,0.838,1,0,30,30,21,1,stimuli/blank.png,ich,l,SL03TO,2023-08-05_14h48.25.422,openIAT,2023.1.3,MacIntel,62.5,
,,,,,,a,1,0.686,,,,,,,,,0.686,1,0,31,31,12,1,stimuli/blank.png,fröhlich,a,SL03TO,2023-08-05_14h48.25.422,openIAT,2023.1.3,MacIntel,62.5,
,,,,,,a,1,0.946,,,,,,,,,0.946,1,0,32,32,24,1,stimuli/blank.png,jene,a,SL03TO,2023-08-05_14h48.25.422,openIAT,2023.1.3,MacIntel,62.5,
,,,,,,l,1,0.847,,,,,,,,,0.847,1,0,33,33,39,1,stimuli/blank.png,lustlos,l,SL03TO,2023-08-05_14h48.25.422,openIAT,2023.1.3,MacIntel,62.5,
,,,,,,l,1,0.863,,,,,,,,,0.863,1,0,34,34,27,1,stimuli/blank.png,eigene,l,SL03TO,2023-08-05_14h48.25.422,openIAT,2023.1.3,MacIntel,62.5,
,,,,,,a,1,0.97,,,,,,,,,0.97,1,0,35,35,36,1,stimuli/blank.png,begabt,a,SL03TO,2023-08-05_14h48.25.422,openIAT,2023.1.3,MacIntel,62.5,
,,,,,,a,1,0.621,,,,,,,,,0.621,1,0,36,36,32,1,stimuli/blank.png,fröhlich,a,SL03TO,2023-08-05_14h48.25.422,openIAT,2023.1.3,MacIntel,62.5,
,,,,,,a,1,0.715,,,,,,,,,0.715,1,0,37,37,16,1,stimuli/blank.png,begabt,a,SL03TO,2023-08-05_14h48.25.422,openIAT,2023.1.3,MacIntel,62.5,
,,,,,,l,1,0.931,,,,,,,,,0.931,1,0,38,38,3,1,stimuli/blank.png,mir,l,SL03TO,2023-08-05_14h48.25.422,openIAT,2023.1.3,MacIntel,62.5,
,,,,,,a,1,0.867,,,,,,,,,0.867,1,0,39,39,20,1,stimuli/blank.png,andere,a,SL03TO,2023-08-05_14h48.25.422,openIAT,2023.1.3,MacIntel,62.5,
,,,,,,,,,,,,,,,,,,,,,,,,,,,SL03TO,2023-08-05_14h48.25.422,openIAT,2023.1.3,MacIntel,62.5,
