instr_done_touch.x,instr_done_touch.y,instr_done_touch.leftButton,instr_done_touch.midButton,instr_done_touch.rightButton,instr_done_touch.clicked_name,key_resp.keys,key_resp.corr,key_resp.rt,key_resp.duration,touch_resp.x,touch_resp.y,touch_resp.leftButton,touch_resp.midButton,touch_resp.rightButton,touch_resp.time,touch_resp.clicked_name,rt,corr,trials.thisRepN,trials.thisTrialN,trials.thisN,trials.thisIndex,trials.ran,stimImage,stimWord,CorrAns,participant,date,expName,psychopyVersion,OS,frameRate,return_tic
0.1875,-0.3625,1,0,0,instr_done_button,l,1,2.623,,,,,,,,,2.623,1,0,0,0,3,1,stimuli/blank.png,verlogen,l,SM02RU,2023-08-07_14h53.59.023,openIAT,2023.1.3,Win32,60.0240096,
,,,,,,l,1,1.129,,,,,,,,,1.129,1,0,1,1,19,1,stimuli/blank.png,lustlos,l,SM02RU,2023-08-07_14h53.59.023,openIAT,2023.1.3,Win32,60.0240096,
,,,,,,a,1,0.548,,,,,,,,,0.548,1,0,2,2,2,1,stimuli/blank.png,fröhlich,a,SM02RU,2023-08-07_14h53.59.023,openIAT,2023.1.3,Win32,60.0240096,
,,,,,,a,1,0.697,,,,,,,,,0.697,1,0,3,3,4,1,stimuli/blank.png,gerecht,a,SM02RU,2023-08-07_14h53.59.023,openIAT,2023.1.3,Win32,60.0240096,
,,,,,,a,1,0.549,,,,,,,,,0.549,1,0,4,4,12,1,stimuli/blank.png,fröhlich,a,SM02RU,2023-08-07_14h53.59.023,openIAT,2023.1.3,Win32,60.0240096,
,,,,,,a,1,0.723,,,,,,,,,0.723,1,0,5,5,14,1,stimuli/blank.png,gerecht,a,SM02RU,2023-08-07_14h53.59.023,openIAT,2023.1.3,Win32,60.0240096,
,,,,,,a,1,0.647,,,,,,,,,0.647,1,0,6,6,16,1,stimuli/blank.png,begabt,a,SM02RU,2023-08-07_14h53.59.023,openIAT,2023.1.3,Win32,60.0240096,
,,,,,,l,1,0.531,,,,,,,,,0.531,1,0,7,7,9,1,stimuli/blank.png,lustlos,l,SM02RU,2023-08-07_14h53.59.023,openIAT,2023.1.3,Win32,60.0240096,
,,,,,,a,1,0.73,,,,,,,,,0.73,1,0,8,8,10,1,stimuli/blank.png,aktiv,a,SM02RU,2023-08-07_14h53.59.023,openIAT,2023.1.3,Win32,60.0240096,
,,,,,,a,1,0.735,,,,,,,,,0.735,1,0,9,9,0,1,stimuli/blank.png,aktiv,a,SM02RU,2023-08-07_14h53.59.023,openIAT,2023.1.3,Win32,60.0240096,
,,,,,,l,1,0.648,,,,,,,,,0.648,1,0,10,10,13,1,stimuli/blank.png,verlogen,l,SM02RU,2023-08-07_14h53.59.023,openIAT,2023.1.3,Win32,60.0240096,
,,,,,,a,0,0.649,,,,,,,,,0.649,0,0,11,11,15,1,stimuli/blank.png,träge,l,SM02RU,2023-08-07_14h53.59.023,openIAT,2023.1.3,Win32,60.0240096,
,,,,,,a,1,0.747,,,,,,,,,0.747,1,0,12,12,6,1,stimuli/blank.png,begabt,a,SM02RU,2023-08-07_14h53.59.023,openIAT,2023.1.3,Win32,60.0240096,
,,,,,,l,1,0.748,,,,,,,,,0.748,1,0,13,13,1,1,stimuli/blank.png,brutal,l,SM02RU,2023-08-07_14h53.59.023,openIAT,2023.1.3,Win32,60.0240096,
,,,,,,l,1,1.052,,,,,,,,,1.052,1,0,14,14,17,1,stimuli/blank.png,eitel,l,SM02RU,2023-08-07_14h53.59.023,openIAT,2023.1.3,Win32,60.0240096,
,,,,,,a,1,0.73,,,,,,,,,0.73,1,0,15,15,8,1,stimuli/blank.png,human,a,SM02RU,2023-08-07_14h53.59.023,openIAT,2023.1.3,Win32,60.0240096,
,,,,,,l,1,0.816,,,,,,,,,0.816,1,0,16,16,5,1,stimuli/blank.png,träge,l,SM02RU,2023-08-07_14h53.59.023,openIAT,2023.1.3,Win32,60.0240096,
,,,,,,a,0,0.816,,,,,,,,,0.816,0,0,17,17,7,1,stimuli/blank.png,eitel,l,SM02RU,2023-08-07_14h53.59.023,openIAT,2023.1.3,Win32,60.0240096,
,,,,,,a,1,0.766,,,,,,,,,0.766,1,0,18,18,18,1,stimuli/blank.png,human,a,SM02RU,2023-08-07_14h53.59.023,openIAT,2023.1.3,Win32,60.0240096,
,,,,,,l,1,0.731,,,,,,,,,0.731,1,0,19,19,11,1,stimuli/blank.png,brutal,l,SM02RU,2023-08-07_14h53.59.023,openIAT,2023.1.3,Win32,60.0240096,
,,,,,,a,1,0.687,,,,,,,,,0.687,1,0,0,0,5,1,stimuli/blank.png,meine,a,SM02RU,2023-08-07_14h53.59.023,openIAT,2023.1.3,Win32,60.0240096,
,,,,,,a,1,0.548,,,,,,,,,0.548,1,0,1,1,1,1,stimuli/blank.png,ich,a,SM02RU,2023-08-07_14h53.59.023,openIAT,2023.1.3,Win32,60.0240096,
,,,,,,a,1,0.515,,,,,,,,,0.515,1,0,2,2,9,1,stimuli/blank.png,selbst,a,SM02RU,2023-08-07_14h53.59.023,openIAT,2023.1.3,Win32,60.0240096,
,,,,,,l,1,0.697,,,,,,,,,0.697,1,0,3,3,12,1,stimuli/blank.png,ihr,l,SM02RU,2023-08-07_14h53.59.023,openIAT,2023.1.3,Win32,60.0240096,
,,,,,,l,1,0.682,,,,,,,,,0.682,1,0,4,4,18,1,stimuli/blank.png,eure,l,SM02RU,2023-08-07_14h53.59.023,openIAT,2023.1.3,Win32,60.0240096,
,,,,,,a,1,0.631,,,,,,,,,0.631,1,0,5,5,7,1,stimuli/blank.png,eigene,a,SM02RU,2023-08-07_14h53.59.023,openIAT,2023.1.3,Win32,60.0240096,
,,,,,,l,1,0.564,,,,,,,,,0.564,1,0,6,6,10,1,stimuli/blank.png,andere,l,SM02RU,2023-08-07_14h53.59.023,openIAT,2023.1.3,Win32,60.0240096,
,,,,,,a,1,0.452,,,,,,,,,0.452,1,0,7,7,11,1,stimuli/blank.png,ich,a,SM02RU,2023-08-07_14h53.59.023,openIAT,2023.1.3,Win32,60.0240096,
,,,,,,a,1,0.579,,,,,,,,,0.579,1,0,8,8,19,1,stimuli/blank.png,selbst,a,SM02RU,2023-08-07_14h53.59.023,openIAT,2023.1.3,Win32,60.0240096,
,,,,,,l,1,0.663,,,,,,,,,0.663,1,0,9,9,16,1,stimuli/blank.png,euch,l,SM02RU,2023-08-07_14h53.59.023,openIAT,2023.1.3,Win32,60.0240096,
,,,,,,l,1,0.862,,,,,,,,,0.862,1,0,10,10,4,1,stimuli/blank.png,jene,l,SM02RU,2023-08-07_14h53.59.023,openIAT,2023.1.3,Win32,60.0240096,
,,,,,,l,1,0.668,,,,,,,,,0.668,1,0,11,11,6,1,stimuli/blank.png,euch,l,SM02RU,2023-08-07_14h53.59.023,openIAT,2023.1.3,Win32,60.0240096,
,,,,,,a,1,0.683,,,,,,,,,0.683,1,0,12,12,15,1,stimuli/blank.png,meine,a,SM02RU,2023-08-07_14h53.59.023,openIAT,2023.1.3,Win32,60.0240096,
,,,,,,a,1,0.679,,,,,,,,,0.679,1,0,13,13,13,1,stimuli/blank.png,mir,a,SM02RU,2023-08-07_14h53.59.023,openIAT,2023.1.3,Win32,60.0240096,
,,,,,,l,1,0.715,,,,,,,,,0.715,1,0,14,14,2,1,stimuli/blank.png,ihr,l,SM02RU,2023-08-07_14h53.59.023,openIAT,2023.1.3,Win32,60.0240096,
,,,,,,l,1,0.763,,,,,,,,,0.763,1,0,15,15,0,1,stimuli/blank.png,andere,l,SM02RU,2023-08-07_14h53.59.023,openIAT,2023.1.3,Win32,60.0240096,
,,,,,,l,1,0.597,,,,,,,,,0.597,1,0,16,16,14,1,stimuli/blank.png,jene,l,SM02RU,2023-08-07_14h53.59.023,openIAT,2023.1.3,Win32,60.0240096,
,,,,,,l,1,0.614,,,,,,,,,0.614,1,0,17,17,8,1,stimuli/blank.png,eure,l,SM02RU,2023-08-07_14h53.59.023,openIAT,2023.1.3,Win32,60.0240096,
,,,,,,a,1,0.632,,,,,,,,,0.632,1,0,18,18,3,1,stimuli/blank.png,mir,a,SM02RU,2023-08-07_14h53.59.023,openIAT,2023.1.3,Win32,60.0240096,
,,,,,,a,1,0.818,,,,,,,,,0.818,1,0,19,19,17,1,stimuli/blank.png,eigene,a,SM02RU,2023-08-07_14h53.59.023,openIAT,2023.1.3,Win32,60.0240096,
,,,,,,a,1,0.671,,,,,,,,,0.671,1,0,0,0,1,1,stimuli/blank.png,ich,a,SM02RU,2023-08-07_14h53.59.023,openIAT,2023.1.3,Win32,60.0240096,
,,,,,,a,1,1.165,,,,,,,,,1.165,1,0,1,1,7,1,stimuli/blank.png,eigene,a,SM02RU,2023-08-07_14h53.59.023,openIAT,2023.1.3,Win32,60.0240096,
,,,,,,a,1,0.633,,,,,,,,,0.633,1,0,2,2,5,1,stimuli/blank.png,meine,a,SM02RU,2023-08-07_14h53.59.023,openIAT,2023.1.3,Win32,60.0240096,
,,,,,,l,1,0.837,,,,,,,,,0.837,1,0,3,3,2,1,stimuli/blank.png,ihr,l,SM02RU,2023-08-07_14h53.59.023,openIAT,2023.1.3,Win32,60.0240096,
,,,,,,a,1,0.834,,,,,,,,,0.834,1,0,4,4,3,1,stimuli/blank.png,mir,a,SM02RU,2023-08-07_14h53.59.023,openIAT,2023.1.3,Win32,60.0240096,
,,,,,,a,1,0.963,,,,,,,,,0.963,1,0,5,5,10,1,stimuli/blank.png,aktiv,a,SM02RU,2023-08-07_14h53.59.023,openIAT,2023.1.3,Win32,60.0240096,
,,,,,,l,1,0.857,,,,,,,,,0.857,1,0,6,6,4,1,stimuli/blank.png,jene,l,SM02RU,2023-08-07_14h53.59.023,openIAT,2023.1.3,Win32,60.0240096,
,,,,,,a,1,1.735,,,,,,,,,1.735,1,0,7,7,14,1,stimuli/blank.png,gerecht,a,SM02RU,2023-08-07_14h53.59.023,openIAT,2023.1.3,Win32,60.0240096,
,,,,,,l,1,0.898,,,,,,,,,0.898,1,0,8,8,19,1,stimuli/blank.png,lustlos,l,SM02RU,2023-08-07_14h53.59.023,openIAT,2023.1.3,Win32,60.0240096,
,,,,,,a,1,1.265,,,,,,,,,1.265,1,0,9,9,16,1,stimuli/blank.png,begabt,a,SM02RU,2023-08-07_14h53.59.023,openIAT,2023.1.3,Win32,60.0240096,
,,,,,,l,1,0.765,,,,,,,,,0.765,1,0,10,10,15,1,stimuli/blank.png,träge,l,SM02RU,2023-08-07_14h53.59.023,openIAT,2023.1.3,Win32,60.0240096,
,,,,,,l,1,0.898,,,,,,,,,0.898,1,0,11,11,8,1,stimuli/blank.png,eure,l,SM02RU,2023-08-07_14h53.59.023,openIAT,2023.1.3,Win32,60.0240096,
,,,,,,l,1,0.729,,,,,,,,,0.729,1,0,12,12,6,1,stimuli/blank.png,euch,l,SM02RU,2023-08-07_14h53.59.023,openIAT,2023.1.3,Win32,60.0240096,
,,,,,,l,1,1.299,,,,,,,,,1.299,1,0,13,13,17,1,stimuli/blank.png,eitel,l,SM02RU,2023-08-07_14h53.59.023,openIAT,2023.1.3,Win32,60.0240096,
,,,,,,l,1,0.748,,,,,,,,,0.748,1,0,14,14,0,1,stimuli/blank.png,andere,l,SM02RU,2023-08-07_14h53.59.023,openIAT,2023.1.3,Win32,60.0240096,
,,,,,,a,1,0.68,,,,,,,,,0.68,1,0,15,15,9,1,stimuli/blank.png,selbst,a,SM02RU,2023-08-07_14h53.59.023,openIAT,2023.1.3,Win32,60.0240096,
,,,,,,a,1,0.681,,,,,,,,,0.681,1,0,16,16,18,1,stimuli/blank.png,human,a,SM02RU,2023-08-07_14h53.59.023,openIAT,2023.1.3,Win32,60.0240096,
,,,,,,l,1,0.682,,,,,,,,,0.682,1,0,17,17,11,1,stimuli/blank.png,brutal,l,SM02RU,2023-08-07_14h53.59.023,openIAT,2023.1.3,Win32,60.0240096,
,,,,,,l,1,0.85,,,,,,,,,0.85,1,0,18,18,13,1,stimuli/blank.png,verlogen,l,SM02RU,2023-08-07_14h53.59.023,openIAT,2023.1.3,Win32,60.0240096,
,,,,,,a,1,0.702,,,,,,,,,0.702,1,0,19,19,12,1,stimuli/blank.png,fröhlich,a,SM02RU,2023-08-07_14h53.59.023,openIAT,2023.1.3,Win32,60.0240096,
,,,,,,l,1,0.669,,,,,,,,,0.669,1,0,0,0,24,1,stimuli/blank.png,jene,l,SM02RU,2023-08-07_14h53.59.023,openIAT,2023.1.3,Win32,60.0240096,
,,,,,,l,1,0.649,,,,,,,,,0.649,1,0,1,1,19,1,stimuli/blank.png,lustlos,l,SM02RU,2023-08-07_14h53.59.023,openIAT,2023.1.3,Win32,60.0240096,
,,,,,,l,1,0.55,,,,,,,,,0.55,1,0,2,2,4,1,stimuli/blank.png,jene,l,SM02RU,2023-08-07_14h53.59.023,openIAT,2023.1.3,Win32,60.0240096,
,,,,,,l,1,0.903,,,,,,,,,0.903,1,0,3,3,33,1,stimuli/blank.png,verlogen,l,SM02RU,2023-08-07_14h53.59.023,openIAT,2023.1.3,Win32,60.0240096,
,,,,,,a,1,0.681,,,,,,,,,0.681,1,0,4,4,38,1,stimuli/blank.png,human,a,SM02RU,2023-08-07_14h53.59.023,openIAT,2023.1.3,Win32,60.0240096,
,,,,,,a,1,0.914,,,,,,,,,0.914,1,0,5,5,7,1,stimuli/blank.png,eigene,a,SM02RU,2023-08-07_14h53.59.023,openIAT,2023.1.3,Win32,60.0240096,
,,,,,,l,1,0.549,,,,,,,,,0.549,1,0,6,6,11,1,stimuli/blank.png,brutal,l,SM02RU,2023-08-07_14h53.59.023,openIAT,2023.1.3,Win32,60.0240096,
,,,,,,l,1,0.697,,,,,,,,,0.697,1,0,7,7,15,1,stimuli/blank.png,träge,l,SM02RU,2023-08-07_14h53.59.023,openIAT,2023.1.3,Win32,60.0240096,
,,,,,,a,1,1.816,,,,,,,,,1.816,1,0,8,8,27,1,stimuli/blank.png,eigene,a,SM02RU,2023-08-07_14h53.59.023,openIAT,2023.1.3,Win32,60.0240096,
,,,,,,l,1,0.531,,,,,,,,,0.531,1,0,9,9,20,1,stimuli/blank.png,andere,l,SM02RU,2023-08-07_14h53.59.023,openIAT,2023.1.3,Win32,60.0240096,
,,,,,,l,1,0.665,,,,,,,,,0.665,1,0,10,10,37,1,stimuli/blank.png,eitel,l,SM02RU,2023-08-07_14h53.59.023,openIAT,2023.1.3,Win32,60.0240096,
,,,,,,l,1,0.615,,,,,,,,,0.615,1,0,11,11,39,1,stimuli/blank.png,lustlos,l,SM02RU,2023-08-07_14h53.59.023,openIAT,2023.1.3,Win32,60.0240096,
,,,,,,l,1,0.905,,,,,,,,,0.905,1,0,12,12,17,1,stimuli/blank.png,eitel,l,SM02RU,2023-08-07_14h53.59.023,openIAT,2023.1.3,Win32,60.0240096,
,,,,,,a,1,0.647,,,,,,,,,0.647,1,0,13,13,25,1,stimuli/blank.png,meine,a,SM02RU,2023-08-07_14h53.59.023,openIAT,2023.1.3,Win32,60.0240096,
,,,,,,a,1,0.581,,,,,,,,,0.581,1,0,14,14,34,1,stimuli/blank.png,gerecht,a,SM02RU,2023-08-07_14h53.59.023,openIAT,2023.1.3,Win32,60.0240096,
,,,,,,l,1,1.167,,,,,,,,,1.167,1,0,15,15,28,1,stimuli/blank.png,eure,l,SM02RU,2023-08-07_14h53.59.023,openIAT,2023.1.3,Win32,60.0240096,
,,,,,,l,1,0.731,,,,,,,,,0.731,1,0,16,16,2,1,stimuli/blank.png,ihr,l,SM02RU,2023-08-07_14h53.59.023,openIAT,2023.1.3,Win32,60.0240096,
,,,,,,a,1,0.748,,,,,,,,,0.748,1,0,17,17,12,1,stimuli/blank.png,fröhlich,a,SM02RU,2023-08-07_14h53.59.023,openIAT,2023.1.3,Win32,60.0240096,
,,,,,,l,1,0.697,,,,,,,,,0.697,1,0,18,18,6,1,stimuli/blank.png,euch,l,SM02RU,2023-08-07_14h53.59.023,openIAT,2023.1.3,Win32,60.0240096,
,,,,,,a,1,0.535,,,,,,,,,0.535,1,0,19,19,9,1,stimuli/blank.png,selbst,a,SM02RU,2023-08-07_14h53.59.023,openIAT,2023.1.3,Win32,60.0240096,
,,,,,,l,1,0.52,,,,,,,,,0.52,1,0,20,20,26,1,stimuli/blank.png,euch,l,SM02RU,2023-08-07_14h53.59.023,openIAT,2023.1.3,Win32,60.0240096,
,,,,,,a,1,0.598,,,,,,,,,0.598,1,0,21,21,36,1,stimuli/blank.png,begabt,a,SM02RU,2023-08-07_14h53.59.023,openIAT,2023.1.3,Win32,60.0240096,
,,,,,,a,1,0.565,,,,,,,,,0.565,1,0,22,22,29,1,stimuli/blank.png,selbst,a,SM02RU,2023-08-07_14h53.59.023,openIAT,2023.1.3,Win32,60.0240096,
,,,,,,a,1,0.581,,,,,,,,,0.581,1,0,23,23,30,1,stimuli/blank.png,aktiv,a,SM02RU,2023-08-07_14h53.59.023,openIAT,2023.1.3,Win32,60.0240096,
,,,,,,l,1,0.615,,,,,,,,,0.615,1,0,24,24,31,1,stimuli/blank.png,brutal,l,SM02RU,2023-08-07_14h53.59.023,openIAT,2023.1.3,Win32,60.0240096,
,,,,,,l,1,0.616,,,,,,,,,0.616,1,0,25,25,8,1,stimuli/blank.png,eure,l,SM02RU,2023-08-07_14h53.59.023,openIAT,2023.1.3,Win32,60.0240096,
,,,,,,l,1,0.668,,,,,,,,,0.668,1,0,26,26,0,1,stimuli/blank.png,andere,l,SM02RU,2023-08-07_14h53.59.023,openIAT,2023.1.3,Win32,60.0240096,
,,,,,,a,1,0.636,,,,,,,,,0.636,1,0,27,27,18,1,stimuli/blank.png,human,a,SM02RU,2023-08-07_14h53.59.023,openIAT,2023.1.3,Win32,60.0240096,
,,,,,,a,1,0.515,,,,,,,,,0.515,1,0,28,28,21,1,stimuli/blank.png,ich,a,SM02RU,2023-08-07_14h53.59.023,openIAT,2023.1.3,Win32,60.0240096,
,,,,,,a,1,0.562,,,,,,,,,0.562,1,0,29,29,14,1,stimuli/blank.png,gerecht,a,SM02RU,2023-08-07_14h53.59.023,openIAT,2023.1.3,Win32,60.0240096,
,,,,,,a,1,0.696,,,,,,,,,0.696,1,0,30,30,16,1,stimuli/blank.png,begabt,a,SM02RU,2023-08-07_14h53.59.023,openIAT,2023.1.3,Win32,60.0240096,
,,,,,,a,1,0.565,,,,,,,,,0.565,1,0,31,31,32,1,stimuli/blank.png,fröhlich,a,SM02RU,2023-08-07_14h53.59.023,openIAT,2023.1.3,Win32,60.0240096,
,,,,,,a,1,0.647,,,,,,,,,0.647,1,0,32,32,23,1,stimuli/blank.png,mir,a,SM02RU,2023-08-07_14h53.59.023,openIAT,2023.1.3,Win32,60.0240096,
,,,,,,l,1,0.633,,,,,,,,,0.633,1,0,33,33,22,1,stimuli/blank.png,ihr,l,SM02RU,2023-08-07_14h53.59.023,openIAT,2023.1.3,Win32,60.0240096,
,,,,,,l,1,0.599,,,,,,,,,0.599,1,0,34,34,35,1,stimuli/blank.png,träge,l,SM02RU,2023-08-07_14h53.59.023,openIAT,2023.1.3,Win32,60.0240096,
,,,,,,a,1,0.599,,,,,,,,,0.599,1,0,35,35,3,1,stimuli/blank.png,mir,a,SM02RU,2023-08-07_14h53.59.023,openIAT,2023.1.3,Win32,60.0240096,
,,,,,,l,1,0.532,,,,,,,,,0.532,1,0,36,36,13,1,stimuli/blank.png,verlogen,l,SM02RU,2023-08-07_14h53.59.023,openIAT,2023.1.3,Win32,60.0240096,
,,,,,,a,1,1.299,,,,,,,,,1.299,1,0,37,37,10,1,stimuli/blank.png,aktiv,a,SM02RU,2023-08-07_14h53.59.023,openIAT,2023.1.3,Win32,60.0240096,
,,,,,,a,1,0.581,,,,,,,,,0.581,1,0,38,38,1,1,stimuli/blank.png,ich,a,SM02RU,2023-08-07_14h53.59.023,openIAT,2023.1.3,Win32,60.0240096,
,,,,,,a,1,0.631,,,,,,,,,0.631,1,0,39,39,5,1,stimuli/blank.png,meine,a,SM02RU,2023-08-07_14h53.59.023,openIAT,2023.1.3,Win32,60.0240096,
,,,,,,l,1,0.706,,,,,,,,,0.706,1,0,0,0,19,1,stimuli/blank.png,selbst,l,SM02RU,2023-08-07_14h53.59.023,openIAT,2023.1.3,Win32,60.0240096,
,,,,,,a,1,0.631,,,,,,,,,0.631,1,0,1,1,10,1,stimuli/blank.png,andere,a,SM02RU,2023-08-07_14h53.59.023,openIAT,2023.1.3,Win32,60.0240096,
,,,,,,l,1,0.514,,,,,,,,,0.514,1,0,2,2,11,1,stimuli/blank.png,ich,l,SM02RU,2023-08-07_14h53.59.023,openIAT,2023.1.3,Win32,60.0240096,
,,,,,,l,1,0.651,,,,,,,,,0.651,1,0,3,3,1,1,stimuli/blank.png,ich,l,SM02RU,2023-08-07_14h53.59.023,openIAT,2023.1.3,Win32,60.0240096,
,,,,,,l,1,0.699,,,,,,,,,0.699,1,0,4,4,15,1,stimuli/blank.png,meine,l,SM02RU,2023-08-07_14h53.59.023,openIAT,2023.1.3,Win32,60.0240096,
,,,,,,l,1,0.501,,,,,,,,,0.501,1,0,5,5,5,1,stimuli/blank.png,meine,l,SM02RU,2023-08-07_14h53.59.023,openIAT,2023.1.3,Win32,60.0240096,
,,,,,,a,1,0.415,,,,,,,,,0.415,1,0,6,6,0,1,stimuli/blank.png,andere,a,SM02RU,2023-08-07_14h53.59.023,openIAT,2023.1.3,Win32,60.0240096,
,,,,,,l,0,0.349,,,,,,,,,0.349,0,0,7,7,14,1,stimuli/blank.png,jene,a,SM02RU,2023-08-07_14h53.59.023,openIAT,2023.1.3,Win32,60.0240096,
,,,,,,a,1,0.816,,,,,,,,,0.816,1,0,8,8,8,1,stimuli/blank.png,eure,a,SM02RU,2023-08-07_14h53.59.023,openIAT,2023.1.3,Win32,60.0240096,
,,,,,,a,1,0.801,,,,,,,,,0.801,1,0,9,9,2,1,stimuli/blank.png,ihr,a,SM02RU,2023-08-07_14h53.59.023,openIAT,2023.1.3,Win32,60.0240096,
,,,,,,a,1,0.7,,,,,,,,,0.7,1,0,10,10,12,1,stimuli/blank.png,ihr,a,SM02RU,2023-08-07_14h53.59.023,openIAT,2023.1.3,Win32,60.0240096,
,,,,,,l,1,0.781,,,,,,,,,0.781,1,0,11,11,7,1,stimuli/blank.png,eigene,l,SM02RU,2023-08-07_14h53.59.023,openIAT,2023.1.3,Win32,60.0240096,
,,,,,,l,1,0.899,,,,,,,,,0.899,1,0,12,12,9,1,stimuli/blank.png,selbst,l,SM02RU,2023-08-07_14h53.59.023,openIAT,2023.1.3,Win32,60.0240096,
,,,,,,l,1,0.666,,,,,,,,,0.666,1,0,13,13,13,1,stimuli/blank.png,mir,l,SM02RU,2023-08-07_14h53.59.023,openIAT,2023.1.3,Win32,60.0240096,
,,,,,,l,1,0.705,,,,,,,,,0.705,1,0,14,14,3,1,stimuli/blank.png,mir,l,SM02RU,2023-08-07_14h53.59.023,openIAT,2023.1.3,Win32,60.0240096,
,,,,,,a,1,0.765,,,,,,,,,0.765,1,0,15,15,16,1,stimuli/blank.png,euch,a,SM02RU,2023-08-07_14h53.59.023,openIAT,2023.1.3,Win32,60.0240096,
,,,,,,a,1,0.644,,,,,,,,,0.644,1,0,16,16,18,1,stimuli/blank.png,eure,a,SM02RU,2023-08-07_14h53.59.023,openIAT,2023.1.3,Win32,60.0240096,
,,,,,,l,1,0.929,,,,,,,,,0.929,1,0,17,17,17,1,stimuli/blank.png,eigene,l,SM02RU,2023-08-07_14h53.59.023,openIAT,2023.1.3,Win32,60.0240096,
,,,,,,a,1,0.732,,,,,,,,,0.732,1,0,18,18,4,1,stimuli/blank.png,jene,a,SM02RU,2023-08-07_14h53.59.023,openIAT,2023.1.3,Win32,60.0240096,
,,,,,,a,1,0.965,,,,,,,,,0.965,1,0,19,19,6,1,stimuli/blank.png,euch,a,SM02RU,2023-08-07_14h53.59.023,openIAT,2023.1.3,Win32,60.0240096,
,,,,,,l,1,0.687,,,,,,,,,0.687,1,0,0,0,1,1,stimuli/blank.png,ich,l,SM02RU,2023-08-07_14h53.59.023,openIAT,2023.1.3,Win32,60.0240096,
,,,,,,l,1,0.657,,,,,,,,,0.657,1,0,1,1,19,1,stimuli/blank.png,lustlos,l,SM02RU,2023-08-07_14h53.59.023,openIAT,2023.1.3,Win32,60.0240096,
,,,,,,a,1,0.852,,,,,,,,,0.852,1,0,2,2,18,1,stimuli/blank.png,human,a,SM02RU,2023-08-07_14h53.59.023,openIAT,2023.1.3,Win32,60.0240096,
,,,,,,a,1,0.952,,,,,,,,,0.952,1,0,3,3,12,1,stimuli/blank.png,fröhlich,a,SM02RU,2023-08-07_14h53.59.023,openIAT,2023.1.3,Win32,60.0240096,
,,,,,,a,1,0.632,,,,,,,,,0.632,1,0,4,4,6,1,stimuli/blank.png,euch,a,SM02RU,2023-08-07_14h53.59.023,openIAT,2023.1.3,Win32,60.0240096,
,,,,,,a,1,1.398,,,,,,,,,1.398,1,0,5,5,10,1,stimuli/blank.png,aktiv,a,SM02RU,2023-08-07_14h53.59.023,openIAT,2023.1.3,Win32,60.0240096,
,,,,,,a,1,0.68,,,,,,,,,0.68,1,0,6,6,2,1,stimuli/blank.png,ihr,a,SM02RU,2023-08-07_14h53.59.023,openIAT,2023.1.3,Win32,60.0240096,
,,,,,,a,1,0.664,,,,,,,,,0.664,1,0,7,7,4,1,stimuli/blank.png,jene,a,SM02RU,2023-08-07_14h53.59.023,openIAT,2023.1.3,Win32,60.0240096,
,,,,,,l,1,0.665,,,,,,,,,0.665,1,0,8,8,15,1,stimuli/blank.png,träge,l,SM02RU,2023-08-07_14h53.59.023,openIAT,2023.1.3,Win32,60.0240096,
,,,,,,l,1,0.766,,,,,,,,,0.766,1,0,9,9,17,1,stimuli/blank.png,eitel,l,SM02RU,2023-08-07_14h53.59.023,openIAT,2023.1.3,Win32,60.0240096,
,,,,,,l,1,0.632,,,,,,,,,0.632,1,0,10,10,3,1,stimuli/blank.png,mir,l,SM02RU,2023-08-07_14h53.59.023,openIAT,2023.1.3,Win32,60.0240096,
,,,,,,l,1,0.581,,,,,,,,,0.581,1,0,11,11,5,1,stimuli/blank.png,meine,l,SM02RU,2023-08-07_14h53.59.023,openIAT,2023.1.3,Win32,60.0240096,
,,,,,,l,1,0.699,,,,,,,,,0.699,1,0,12,12,9,1,stimuli/blank.png,selbst,l,SM02RU,2023-08-07_14h53.59.023,openIAT,2023.1.3,Win32,60.0240096,
,,,,,,a,1,0.884,,,,,,,,,0.884,1,0,13,13,14,1,stimuli/blank.png,gerecht,a,SM02RU,2023-08-07_14h53.59.023,openIAT,2023.1.3,Win32,60.0240096,
,,,,,,a,0,0.564,,,,,,,,,0.564,0,0,14,14,7,1,stimuli/blank.png,eigene,l,SM02RU,2023-08-07_14h53.59.023,openIAT,2023.1.3,Win32,60.0240096,
,,,,,,a,1,0.983,,,,,,,,,0.983,1,0,15,15,0,1,stimuli/blank.png,andere,a,SM02RU,2023-08-07_14h53.59.023,openIAT,2023.1.3,Win32,60.0240096,
,,,,,,l,0,0.753,,,,,,,,,0.753,0,0,16,16,16,1,stimuli/blank.png,begabt,a,SM02RU,2023-08-07_14h53.59.023,openIAT,2023.1.3,Win32,60.0240096,
,,,,,,l,1,1.352,,,,,,,,,1.352,1,0,17,17,11,1,stimuli/blank.png,brutal,l,SM02RU,2023-08-07_14h53.59.023,openIAT,2023.1.3,Win32,60.0240096,
,,,,,,a,1,0.682,,,,,,,,,0.682,1,0,18,18,8,1,stimuli/blank.png,eure,a,SM02RU,2023-08-07_14h53.59.023,openIAT,2023.1.3,Win32,60.0240096,
,,,,,,l,1,1.533,,,,,,,,,1.533,1,0,19,19,13,1,stimuli/blank.png,verlogen,l,SM02RU,2023-08-07_14h53.59.023,openIAT,2023.1.3,Win32,60.0240096,
,,,,,,a,1,0.997,,,,,,,,,0.997,1,0,0,0,36,1,stimuli/blank.png,begabt,a,SM02RU,2023-08-07_14h53.59.023,openIAT,2023.1.3,Win32,60.0240096,
,,,,,,l,1,0.749,,,,,,,,,0.749,1,0,1,1,9,1,stimuli/blank.png,selbst,l,SM02RU,2023-08-07_14h53.59.023,openIAT,2023.1.3,Win32,60.0240096,
,,,,,,a,1,0.914,,,,,,,,,0.914,1,0,2,2,18,1,stimuli/blank.png,human,a,SM02RU,2023-08-07_14h53.59.023,openIAT,2023.1.3,Win32,60.0240096,
,,,,,,a,1,0.697,,,,,,,,,0.697,1,0,3,3,24,1,stimuli/blank.png,jene,a,SM02RU,2023-08-07_14h53.59.023,openIAT,2023.1.3,Win32,60.0240096,
,,,,,,a,1,0.796,,,,,,,,,0.796,1,0,4,4,30,1,stimuli/blank.png,aktiv,a,SM02RU,2023-08-07_14h53.59.023,openIAT,2023.1.3,Win32,60.0240096,
,,,,,,a,1,0.614,,,,,,,,,0.614,1,0,5,5,28,1,stimuli/blank.png,eure,a,SM02RU,2023-08-07_14h53.59.023,openIAT,2023.1.3,Win32,60.0240096,
,,,,,,l,1,1.232,,,,,,,,,1.232,1,0,6,6,31,1,stimuli/blank.png,brutal,l,SM02RU,2023-08-07_14h53.59.023,openIAT,2023.1.3,Win32,60.0240096,
,,,,,,l,1,0.799,,,,,,,,,0.799,1,0,7,7,39,1,stimuli/blank.png,lustlos,l,SM02RU,2023-08-07_14h53.59.023,openIAT,2023.1.3,Win32,60.0240096,
,,,,,,l,1,0.565,,,,,,,,,0.565,1,0,8,8,25,1,stimuli/blank.png,meine,l,SM02RU,2023-08-07_14h53.59.023,openIAT,2023.1.3,Win32,60.0240096,
,,,,,,a,1,0.964,,,,,,,,,0.964,1,0,9,9,34,1,stimuli/blank.png,gerecht,a,SM02RU,2023-08-07_14h53.59.023,openIAT,2023.1.3,Win32,60.0240096,
,,,,,,a,1,0.811,,,,,,,,,0.811,1,0,10,10,32,1,stimuli/blank.png,fröhlich,a,SM02RU,2023-08-07_14h53.59.023,openIAT,2023.1.3,Win32,60.0240096,
,,,,,,l,1,0.782,,,,,,,,,0.782,1,0,11,11,13,1,stimuli/blank.png,verlogen,l,SM02RU,2023-08-07_14h53.59.023,openIAT,2023.1.3,Win32,60.0240096,
,,,,,,a,1,0.849,,,,,,,,,0.849,1,0,12,12,6,1,stimuli/blank.png,euch,a,SM02RU,2023-08-07_14h53.59.023,openIAT,2023.1.3,Win32,60.0240096,
,,,,,,l,1,0.615,,,,,,,,,0.615,1,0,13,13,27,1,stimuli/blank.png,eigene,l,SM02RU,2023-08-07_14h53.59.023,openIAT,2023.1.3,Win32,60.0240096,
,,,,,,l,1,1.084,,,,,,,,,1.084,1,0,14,14,5,1,stimuli/blank.png,meine,l,SM02RU,2023-08-07_14h53.59.023,openIAT,2023.1.3,Win32,60.0240096,
,,,,,,l,1,0.582,,,,,,,,,0.582,1,0,15,15,21,1,stimuli/blank.png,ich,l,SM02RU,2023-08-07_14h53.59.023,openIAT,2023.1.3,Win32,60.0240096,
,,,,,,a,1,0.597,,,,,,,,,0.597,1,0,16,16,8,1,stimuli/blank.png,eure,a,SM02RU,2023-08-07_14h53.59.023,openIAT,2023.1.3,Win32,60.0240096,
,,,,,,a,1,0.747,,,,,,,,,0.747,1,0,17,17,16,1,stimuli/blank.png,begabt,a,SM02RU,2023-08-07_14h53.59.023,openIAT,2023.1.3,Win32,60.0240096,
,,,,,,l,1,0.665,,,,,,,,,0.665,1,0,18,18,23,1,stimuli/blank.png,mir,l,SM02RU,2023-08-07_14h53.59.023,openIAT,2023.1.3,Win32,60.0240096,
,,,,,,l,1,0.615,,,,,,,,,0.615,1,0,19,19,1,1,stimuli/blank.png,ich,l,SM02RU,2023-08-07_14h53.59.023,openIAT,2023.1.3,Win32,60.0240096,
,,,,,,l,1,0.798,,,,,,,,,0.798,1,0,20,20,15,1,stimuli/blank.png,träge,l,SM02RU,2023-08-07_14h53.59.023,openIAT,2023.1.3,Win32,60.0240096,
,,,,,,a,1,0.549,,,,,,,,,0.549,1,0,21,21,0,1,stimuli/blank.png,andere,a,SM02RU,2023-08-07_14h53.59.023,openIAT,2023.1.3,Win32,60.0240096,
,,,,,,l,0,0.581,,,,,,,,,0.581,0,0,22,22,22,1,stimuli/blank.png,ihr,a,SM02RU,2023-08-07_14h53.59.023,openIAT,2023.1.3,Win32,60.0240096,
,,,,,,a,0,0.8,,,,,,,,,0.8,0,0,23,23,17,1,stimuli/blank.png,eitel,l,SM02RU,2023-08-07_14h53.59.023,openIAT,2023.1.3,Win32,60.0240096,
,,,,,,l,1,1.082,,,,,,,,,1.082,1,0,24,24,3,1,stimuli/blank.png,mir,l,SM02RU,2023-08-07_14h53.59.023,openIAT,2023.1.3,Win32,60.0240096,
,,,,,,a,1,0.883,,,,,,,,,0.883,1,0,25,25,10,1,stimuli/blank.png,aktiv,a,SM02RU,2023-08-07_14h53.59.023,openIAT,2023.1.3,Win32,60.0240096,
,,,,,,l,1,0.832,,,,,,,,,0.832,1,0,26,26,33,1,stimuli/blank.png,verlogen,l,SM02RU,2023-08-07_14h53.59.023,openIAT,2023.1.3,Win32,60.0240096,
,,,,,,l,1,1.134,,,,,,,,,1.134,1,0,27,27,37,1,stimuli/blank.png,eitel,l,SM02RU,2023-08-07_14h53.59.023,openIAT,2023.1.3,Win32,60.0240096,
,,,,,,l,1,0.765,,,,,,,,,0.765,1,0,28,28,19,1,stimuli/blank.png,lustlos,l,SM02RU,2023-08-07_14h53.59.023,openIAT,2023.1.3,Win32,60.0240096,
,,,,,,a,1,0.649,,,,,,,,,0.649,1,0,29,29,12,1,stimuli/blank.png,fröhlich,a,SM02RU,2023-08-07_14h53.59.023,openIAT,2023.1.3,Win32,60.0240096,
,,,,,,a,1,1.485,,,,,,,,,1.485,1,0,30,30,14,1,stimuli/blank.png,gerecht,a,SM02RU,2023-08-07_14h53.59.023,openIAT,2023.1.3,Win32,60.0240096,
,,,,,,l,1,1.082,,,,,,,,,1.082,1,0,31,31,29,1,stimuli/blank.png,selbst,l,SM02RU,2023-08-07_14h53.59.023,openIAT,2023.1.3,Win32,60.0240096,
,,,,,,a,1,0.65,,,,,,,,,0.65,1,0,32,32,4,1,stimuli/blank.png,jene,a,SM02RU,2023-08-07_14h53.59.023,openIAT,2023.1.3,Win32,60.0240096,
,,,,,,a,1,0.715,,,,,,,,,0.715,1,0,33,33,2,1,stimuli/blank.png,ihr,a,SM02RU,2023-08-07_14h53.59.023,openIAT,2023.1.3,Win32,60.0240096,
,,,,,,a,1,0.683,,,,,,,,,0.683,1,0,34,34,26,1,stimuli/blank.png,euch,a,SM02RU,2023-08-07_14h53.59.023,openIAT,2023.1.3,Win32,60.0240096,
,,,,,,l,1,1.499,,,,,,,,,1.499,1,0,35,35,11,1,stimuli/blank.png,brutal,l,SM02RU,2023-08-07_14h53.59.023,openIAT,2023.1.3,Win32,60.0240096,
,,,,,,l,1,0.715,,,,,,,,,0.715,1,0,36,36,7,1,stimuli/blank.png,eigene,l,SM02RU,2023-08-07_14h53.59.023,openIAT,2023.1.3,Win32,60.0240096,
,,,,,,a,0,0.981,,,,,,,,,0.981,0,0,37,37,35,1,stimuli/blank.png,träge,l,SM02RU,2023-08-07_14h53.59.023,openIAT,2023.1.3,Win32,60.0240096,
,,,,,,a,1,2.784,,,,,,,,,2.784,1,0,38,38,38,1,stimuli/blank.png,human,a,SM02RU,2023-08-07_14h53.59.023,openIAT,2023.1.3,Win32,60.0240096,
,,,,,,a,1,0.718,,,,,,,,,0.718,1,0,39,39,20,1,stimuli/blank.png,andere,a,SM02RU,2023-08-07_14h53.59.023,openIAT,2023.1.3,Win32,60.0240096,
,,,,,,,,,,,,,,,,,,,,,,,,,,,SM02RU,2023-08-07_14h53.59.023,openIAT,2023.1.3,Win32,60.0240096,
