instr_done_touch.x,instr_done_touch.y,instr_done_touch.leftButton,instr_done_touch.midButton,instr_done_touch.rightButton,instr_done_touch.clicked_name,key_resp.keys,key_resp.corr,key_resp.rt,key_resp.duration,touch_resp.x,touch_resp.y,touch_resp.leftButton,touch_resp.midButton,touch_resp.rightButton,touch_resp.time,touch_resp.clicked_name,rt,corr,trials.thisRepN,trials.thisTrialN,trials.thisN,trials.thisIndex,trials.ran,stimImage,stimWord,CorrAns,participant,date,expName,psychopyVersion,OS,frameRate,return_tic
0.013888889,-0.397222236,1,0,0,instr_done_button,a,1,1.4252,,,,,,,,,1.4252,1,0,0,0,8,1,stimuli/blank.png,human,a,SM06HN,2023-08-11_20h44.03.385,openIAT,2023.1.3,Win32,60.13590715,
,,,,,,a,1,0.561,,,,,,,,,0.561,1,0,1,1,12,1,stimuli/blank.png,fröhlich,a,SM06HN,2023-08-11_20h44.03.385,openIAT,2023.1.3,Win32,60.13590715,
,,,,,,l,1,0.7136,,,,,,,,,0.7136,1,0,2,2,5,1,stimuli/blank.png,träge,l,SM06HN,2023-08-11_20h44.03.385,openIAT,2023.1.3,Win32,60.13590715,
,,,,,,a,1,0.5176,,,,,,,,,0.5176,1,0,3,3,10,1,stimuli/blank.png,aktiv,a,SM06HN,2023-08-11_20h44.03.385,openIAT,2023.1.3,Win32,60.13590715,
,,,,,,a,1,0.4986,,,,,,,,,0.4986,1,0,4,4,18,1,stimuli/blank.png,human,a,SM06HN,2023-08-11_20h44.03.385,openIAT,2023.1.3,Win32,60.13590715,
,,,,,,a,1,0.6948,,,,,,,,,0.6948,1,0,5,5,16,1,stimuli/blank.png,begabt,a,SM06HN,2023-08-11_20h44.03.385,openIAT,2023.1.3,Win32,60.13590715,
,,,,,,l,1,0.3962,,,,,,,,,0.3962,1,0,6,6,15,1,stimuli/blank.png,träge,l,SM06HN,2023-08-11_20h44.03.385,openIAT,2023.1.3,Win32,60.13590715,
,,,,,,l,1,0.4963,,,,,,,,,0.4963,1,0,7,7,3,1,stimuli/blank.png,verlogen,l,SM06HN,2023-08-11_20h44.03.385,openIAT,2023.1.3,Win32,60.13590715,
,,,,,,l,1,0.4415,,,,,,,,,0.4415,1,0,8,8,19,1,stimuli/blank.png,lustlos,l,SM06HN,2023-08-11_20h44.03.385,openIAT,2023.1.3,Win32,60.13590715,
,,,,,,l,1,0.3829,,,,,,,,,0.3829,1,0,9,9,13,1,stimuli/blank.png,verlogen,l,SM06HN,2023-08-11_20h44.03.385,openIAT,2023.1.3,Win32,60.13590715,
,,,,,,l,1,0.4851,,,,,,,,,0.4851,1,0,10,10,17,1,stimuli/blank.png,eitel,l,SM06HN,2023-08-11_20h44.03.385,openIAT,2023.1.3,Win32,60.13590715,
,,,,,,l,0,0.5029,,,,,,,,,0.5029,0,0,11,11,14,1,stimuli/blank.png,gerecht,a,SM06HN,2023-08-11_20h44.03.385,openIAT,2023.1.3,Win32,60.13590715,
,,,,,,l,1,0.6462,,,,,,,,,0.6462,1,0,12,12,1,1,stimuli/blank.png,brutal,l,SM06HN,2023-08-11_20h44.03.385,openIAT,2023.1.3,Win32,60.13590715,
,,,,,,a,1,0.6949,,,,,,,,,0.6949,1,0,13,13,6,1,stimuli/blank.png,begabt,a,SM06HN,2023-08-11_20h44.03.385,openIAT,2023.1.3,Win32,60.13590715,
,,,,,,l,1,0.6041,,,,,,,,,0.6041,1,0,14,14,11,1,stimuli/blank.png,brutal,l,SM06HN,2023-08-11_20h44.03.385,openIAT,2023.1.3,Win32,60.13590715,
,,,,,,l,1,0.4808,,,,,,,,,0.4808,1,0,15,15,9,1,stimuli/blank.png,lustlos,l,SM06HN,2023-08-11_20h44.03.385,openIAT,2023.1.3,Win32,60.13590715,
,,,,,,a,1,0.6168,,,,,,,,,0.6168,1,0,16,16,2,1,stimuli/blank.png,fröhlich,a,SM06HN,2023-08-11_20h44.03.385,openIAT,2023.1.3,Win32,60.13590715,
,,,,,,a,1,0.5119,,,,,,,,,0.5119,1,0,17,17,4,1,stimuli/blank.png,gerecht,a,SM06HN,2023-08-11_20h44.03.385,openIAT,2023.1.3,Win32,60.13590715,
,,,,,,l,1,0.5027,,,,,,,,,0.5027,1,0,18,18,7,1,stimuli/blank.png,eitel,l,SM06HN,2023-08-11_20h44.03.385,openIAT,2023.1.3,Win32,60.13590715,
,,,,,,a,1,0.861,,,,,,,,,0.861,1,0,19,19,0,1,stimuli/blank.png,aktiv,a,SM06HN,2023-08-11_20h44.03.385,openIAT,2023.1.3,Win32,60.13590715,
,,,,,,a,1,0.5374,,,,,,,,,0.5374,1,0,0,0,5,1,stimuli/blank.png,meine,a,SM06HN,2023-08-11_20h44.03.385,openIAT,2023.1.3,Win32,60.13590715,
,,,,,,a,0,0.867,,,,,,,,,0.867,0,0,1,1,14,1,stimuli/blank.png,jene,l,SM06HN,2023-08-11_20h44.03.385,openIAT,2023.1.3,Win32,60.13590715,
,,,,,,l,1,0.7165,,,,,,,,,0.7165,1,0,2,2,10,1,stimuli/blank.png,andere,l,SM06HN,2023-08-11_20h44.03.385,openIAT,2023.1.3,Win32,60.13590715,
,,,,,,a,1,0.6299,,,,,,,,,0.6299,1,0,3,3,9,1,stimuli/blank.png,selbst,a,SM06HN,2023-08-11_20h44.03.385,openIAT,2023.1.3,Win32,60.13590715,
,,,,,,a,1,0.4943,,,,,,,,,0.4943,1,0,4,4,3,1,stimuli/blank.png,mir,a,SM06HN,2023-08-11_20h44.03.385,openIAT,2023.1.3,Win32,60.13590715,
,,,,,,l,1,0.6806,,,,,,,,,0.6806,1,0,5,5,8,1,stimuli/blank.png,eure,l,SM06HN,2023-08-11_20h44.03.385,openIAT,2023.1.3,Win32,60.13590715,
,,,,,,a,1,0.7459,,,,,,,,,0.7459,1,0,6,6,17,1,stimuli/blank.png,eigene,a,SM06HN,2023-08-11_20h44.03.385,openIAT,2023.1.3,Win32,60.13590715,
,,,,,,l,1,0.927,,,,,,,,,0.927,1,0,7,7,16,1,stimuli/blank.png,euch,l,SM06HN,2023-08-11_20h44.03.385,openIAT,2023.1.3,Win32,60.13590715,
,,,,,,a,1,0.5176,,,,,,,,,0.5176,1,0,8,8,19,1,stimuli/blank.png,selbst,a,SM06HN,2023-08-11_20h44.03.385,openIAT,2023.1.3,Win32,60.13590715,
,,,,,,l,1,0.471,,,,,,,,,0.471,1,0,9,9,2,1,stimuli/blank.png,ihr,l,SM06HN,2023-08-11_20h44.03.385,openIAT,2023.1.3,Win32,60.13590715,
,,,,,,l,1,0.5443,,,,,,,,,0.5443,1,0,10,10,6,1,stimuli/blank.png,euch,l,SM06HN,2023-08-11_20h44.03.385,openIAT,2023.1.3,Win32,60.13590715,
,,,,,,a,1,0.654,,,,,,,,,0.654,1,0,11,11,11,1,stimuli/blank.png,ich,a,SM06HN,2023-08-11_20h44.03.385,openIAT,2023.1.3,Win32,60.13590715,
,,,,,,l,1,0.4634,,,,,,,,,0.4634,1,0,12,12,4,1,stimuli/blank.png,jene,l,SM06HN,2023-08-11_20h44.03.385,openIAT,2023.1.3,Win32,60.13590715,
,,,,,,a,1,0.4631,,,,,,,,,0.4631,1,0,13,13,15,1,stimuli/blank.png,meine,a,SM06HN,2023-08-11_20h44.03.385,openIAT,2023.1.3,Win32,60.13590715,
,,,,,,l,1,0.4625,,,,,,,,,0.4625,1,0,14,14,12,1,stimuli/blank.png,ihr,l,SM06HN,2023-08-11_20h44.03.385,openIAT,2023.1.3,Win32,60.13590715,
,,,,,,l,1,0.7629,,,,,,,,,0.7629,1,0,15,15,18,1,stimuli/blank.png,eure,l,SM06HN,2023-08-11_20h44.03.385,openIAT,2023.1.3,Win32,60.13590715,
,,,,,,a,1,0.401,,,,,,,,,0.401,1,0,16,16,1,1,stimuli/blank.png,ich,a,SM06HN,2023-08-11_20h44.03.385,openIAT,2023.1.3,Win32,60.13590715,
,,,,,,l,1,0.4176,,,,,,,,,0.4176,1,0,17,17,0,1,stimuli/blank.png,andere,l,SM06HN,2023-08-11_20h44.03.385,openIAT,2023.1.3,Win32,60.13590715,
,,,,,,a,1,0.5467,,,,,,,,,0.5467,1,0,18,18,7,1,stimuli/blank.png,eigene,a,SM06HN,2023-08-11_20h44.03.385,openIAT,2023.1.3,Win32,60.13590715,
,,,,,,l,0,0.4442,,,,,,,,,0.4442,0,0,19,19,13,1,stimuli/blank.png,mir,a,SM06HN,2023-08-11_20h44.03.385,openIAT,2023.1.3,Win32,60.13590715,
,,,,,,a,1,0.579,,,,,,,,,0.579,1,0,0,0,18,1,stimuli/blank.png,human,a,SM06HN,2023-08-11_20h44.03.385,openIAT,2023.1.3,Win32,60.13590715,
,,,,,,a,1,0.9349,,,,,,,,,0.9349,1,0,1,1,5,1,stimuli/blank.png,meine,a,SM06HN,2023-08-11_20h44.03.385,openIAT,2023.1.3,Win32,60.13590715,
,,,,,,a,1,0.4868,,,,,,,,,0.4868,1,0,2,2,1,1,stimuli/blank.png,ich,a,SM06HN,2023-08-11_20h44.03.385,openIAT,2023.1.3,Win32,60.13590715,
,,,,,,l,1,0.7157,,,,,,,,,0.7157,1,0,3,3,19,1,stimuli/blank.png,lustlos,l,SM06HN,2023-08-11_20h44.03.385,openIAT,2023.1.3,Win32,60.13590715,
,,,,,,a,0,0.5348,,,,,,,,,0.5348,0,0,4,4,0,1,stimuli/blank.png,andere,l,SM06HN,2023-08-11_20h44.03.385,openIAT,2023.1.3,Win32,60.13590715,
,,,,,,a,1,1.9176,,,,,,,,,1.9176,1,0,5,5,7,1,stimuli/blank.png,eigene,a,SM06HN,2023-08-11_20h44.03.385,openIAT,2023.1.3,Win32,60.13590715,
,,,,,,a,1,0.5355,,,,,,,,,0.5355,1,0,6,6,3,1,stimuli/blank.png,mir,a,SM06HN,2023-08-11_20h44.03.385,openIAT,2023.1.3,Win32,60.13590715,
,,,,,,l,1,0.5178,,,,,,,,,0.5178,1,0,7,7,4,1,stimuli/blank.png,jene,l,SM06HN,2023-08-11_20h44.03.385,openIAT,2023.1.3,Win32,60.13590715,
,,,,,,a,1,0.4852,,,,,,,,,0.4852,1,0,8,8,12,1,stimuli/blank.png,fröhlich,a,SM06HN,2023-08-11_20h44.03.385,openIAT,2023.1.3,Win32,60.13590715,
,,,,,,l,1,0.5175,,,,,,,,,0.5175,1,0,9,9,8,1,stimuli/blank.png,eure,l,SM06HN,2023-08-11_20h44.03.385,openIAT,2023.1.3,Win32,60.13590715,
,,,,,,l,1,0.6844,,,,,,,,,0.6844,1,0,10,10,6,1,stimuli/blank.png,euch,l,SM06HN,2023-08-11_20h44.03.385,openIAT,2023.1.3,Win32,60.13590715,
,,,,,,a,1,0.4842,,,,,,,,,0.4842,1,0,11,11,10,1,stimuli/blank.png,aktiv,a,SM06HN,2023-08-11_20h44.03.385,openIAT,2023.1.3,Win32,60.13590715,
,,,,,,l,1,0.4847,,,,,,,,,0.4847,1,0,12,12,2,1,stimuli/blank.png,ihr,l,SM06HN,2023-08-11_20h44.03.385,openIAT,2023.1.3,Win32,60.13590715,
,,,,,,a,1,0.5682,,,,,,,,,0.5682,1,0,13,13,9,1,stimuli/blank.png,selbst,a,SM06HN,2023-08-11_20h44.03.385,openIAT,2023.1.3,Win32,60.13590715,
,,,,,,l,1,0.4501,,,,,,,,,0.4501,1,0,14,14,11,1,stimuli/blank.png,brutal,l,SM06HN,2023-08-11_20h44.03.385,openIAT,2023.1.3,Win32,60.13590715,
,,,,,,l,1,0.5507,,,,,,,,,0.5507,1,0,15,15,17,1,stimuli/blank.png,eitel,l,SM06HN,2023-08-11_20h44.03.385,openIAT,2023.1.3,Win32,60.13590715,
,,,,,,a,1,0.5684,,,,,,,,,0.5684,1,0,16,16,14,1,stimuli/blank.png,gerecht,a,SM06HN,2023-08-11_20h44.03.385,openIAT,2023.1.3,Win32,60.13590715,
,,,,,,l,1,0.4845,,,,,,,,,0.4845,1,0,17,17,15,1,stimuli/blank.png,träge,l,SM06HN,2023-08-11_20h44.03.385,openIAT,2023.1.3,Win32,60.13590715,
,,,,,,a,1,0.7513,,,,,,,,,0.7513,1,0,18,18,16,1,stimuli/blank.png,begabt,a,SM06HN,2023-08-11_20h44.03.385,openIAT,2023.1.3,Win32,60.13590715,
,,,,,,l,1,0.536,,,,,,,,,0.536,1,0,19,19,13,1,stimuli/blank.png,verlogen,l,SM06HN,2023-08-11_20h44.03.385,openIAT,2023.1.3,Win32,60.13590715,
,,,,,,l,1,0.585,,,,,,,,,0.585,1,0,0,0,8,1,stimuli/blank.png,eure,l,SM06HN,2023-08-11_20h44.03.385,openIAT,2023.1.3,Win32,60.13590715,
,,,,,,a,0,0.5019,,,,,,,,,0.5019,0,0,1,1,17,1,stimuli/blank.png,eitel,l,SM06HN,2023-08-11_20h44.03.385,openIAT,2023.1.3,Win32,60.13590715,
,,,,,,l,1,0.5346,,,,,,,,,0.5346,1,0,2,2,35,1,stimuli/blank.png,träge,l,SM06HN,2023-08-11_20h44.03.385,openIAT,2023.1.3,Win32,60.13590715,
,,,,,,l,1,0.5488,,,,,,,,,0.5488,1,0,3,3,24,1,stimuli/blank.png,jene,l,SM06HN,2023-08-11_20h44.03.385,openIAT,2023.1.3,Win32,60.13590715,
,,,,,,l,1,0.535,,,,,,,,,0.535,1,0,4,4,15,1,stimuli/blank.png,träge,l,SM06HN,2023-08-11_20h44.03.385,openIAT,2023.1.3,Win32,60.13590715,
,,,,,,l,1,0.5482,,,,,,,,,0.5482,1,0,5,5,4,1,stimuli/blank.png,jene,l,SM06HN,2023-08-11_20h44.03.385,openIAT,2023.1.3,Win32,60.13590715,
,,,,,,l,0,0.4352,,,,,,,,,0.4352,0,0,6,6,27,1,stimuli/blank.png,eigene,a,SM06HN,2023-08-11_20h44.03.385,openIAT,2023.1.3,Win32,60.13590715,
,,,,,,a,0,0.5844,,,,,,,,,0.5844,0,0,7,7,0,1,stimuli/blank.png,andere,l,SM06HN,2023-08-11_20h44.03.385,openIAT,2023.1.3,Win32,60.13590715,
,,,,,,a,1,0.7789,,,,,,,,,0.7789,1,0,8,8,3,1,stimuli/blank.png,mir,a,SM06HN,2023-08-11_20h44.03.385,openIAT,2023.1.3,Win32,60.13590715,
,,,,,,l,0,0.4689,,,,,,,,,0.4689,0,0,9,9,32,1,stimuli/blank.png,fröhlich,a,SM06HN,2023-08-11_20h44.03.385,openIAT,2023.1.3,Win32,60.13590715,
,,,,,,l,0,0.5003,,,,,,,,,0.5003,0,0,10,10,36,1,stimuli/blank.png,begabt,a,SM06HN,2023-08-11_20h44.03.385,openIAT,2023.1.3,Win32,60.13590715,
,,,,,,l,1,0.5381,,,,,,,,,0.5381,1,0,11,11,31,1,stimuli/blank.png,brutal,l,SM06HN,2023-08-11_20h44.03.385,openIAT,2023.1.3,Win32,60.13590715,
,,,,,,a,1,0.5847,,,,,,,,,0.5847,1,0,12,12,25,1,stimuli/blank.png,meine,a,SM06HN,2023-08-11_20h44.03.385,openIAT,2023.1.3,Win32,60.13590715,
,,,,,,a,1,0.6483,,,,,,,,,0.6483,1,0,13,13,7,1,stimuli/blank.png,eigene,a,SM06HN,2023-08-11_20h44.03.385,openIAT,2023.1.3,Win32,60.13590715,
,,,,,,l,1,0.7512,,,,,,,,,0.7512,1,0,14,14,26,1,stimuli/blank.png,euch,l,SM06HN,2023-08-11_20h44.03.385,openIAT,2023.1.3,Win32,60.13590715,
,,,,,,l,1,0.5506,,,,,,,,,0.5506,1,0,15,15,33,1,stimuli/blank.png,verlogen,l,SM06HN,2023-08-11_20h44.03.385,openIAT,2023.1.3,Win32,60.13590715,
,,,,,,l,1,0.4416,,,,,,,,,0.4416,1,0,16,16,6,1,stimuli/blank.png,euch,l,SM06HN,2023-08-11_20h44.03.385,openIAT,2023.1.3,Win32,60.13590715,
,,,,,,l,1,0.5019,,,,,,,,,0.5019,1,0,17,17,13,1,stimuli/blank.png,verlogen,l,SM06HN,2023-08-11_20h44.03.385,openIAT,2023.1.3,Win32,60.13590715,
,,,,,,a,1,0.7732,,,,,,,,,0.7732,1,0,18,18,29,1,stimuli/blank.png,selbst,a,SM06HN,2023-08-11_20h44.03.385,openIAT,2023.1.3,Win32,60.13590715,
,,,,,,a,1,0.5786,,,,,,,,,0.5786,1,0,19,19,38,1,stimuli/blank.png,human,a,SM06HN,2023-08-11_20h44.03.385,openIAT,2023.1.3,Win32,60.13590715,
,,,,,,a,1,0.5521,,,,,,,,,0.5521,1,0,20,20,9,1,stimuli/blank.png,selbst,a,SM06HN,2023-08-11_20h44.03.385,openIAT,2023.1.3,Win32,60.13590715,
,,,,,,l,1,0.6002,,,,,,,,,0.6002,1,0,21,21,2,1,stimuli/blank.png,ihr,l,SM06HN,2023-08-11_20h44.03.385,openIAT,2023.1.3,Win32,60.13590715,
,,,,,,l,1,0.5869,,,,,,,,,0.5869,1,0,22,22,22,1,stimuli/blank.png,ihr,l,SM06HN,2023-08-11_20h44.03.385,openIAT,2023.1.3,Win32,60.13590715,
,,,,,,a,1,0.4761,,,,,,,,,0.4761,1,0,23,23,21,1,stimuli/blank.png,ich,a,SM06HN,2023-08-11_20h44.03.385,openIAT,2023.1.3,Win32,60.13590715,
,,,,,,l,0,0.501,,,,,,,,,0.501,0,0,24,24,14,1,stimuli/blank.png,gerecht,a,SM06HN,2023-08-11_20h44.03.385,openIAT,2023.1.3,Win32,60.13590715,
,,,,,,a,1,0.6515,,,,,,,,,0.6515,1,0,25,25,23,1,stimuli/blank.png,mir,a,SM06HN,2023-08-11_20h44.03.385,openIAT,2023.1.3,Win32,60.13590715,
,,,,,,l,1,0.5016,,,,,,,,,0.5016,1,0,26,26,11,1,stimuli/blank.png,brutal,l,SM06HN,2023-08-11_20h44.03.385,openIAT,2023.1.3,Win32,60.13590715,
,,,,,,l,1,0.519,,,,,,,,,0.519,1,0,27,27,37,1,stimuli/blank.png,eitel,l,SM06HN,2023-08-11_20h44.03.385,openIAT,2023.1.3,Win32,60.13590715,
,,,,,,a,1,0.5352,,,,,,,,,0.5352,1,0,28,28,10,1,stimuli/blank.png,aktiv,a,SM06HN,2023-08-11_20h44.03.385,openIAT,2023.1.3,Win32,60.13590715,
,,,,,,a,1,0.551,,,,,,,,,0.551,1,0,29,29,5,1,stimuli/blank.png,meine,a,SM06HN,2023-08-11_20h44.03.385,openIAT,2023.1.3,Win32,60.13590715,
,,,,,,l,1,0.5509,,,,,,,,,0.5509,1,0,30,30,28,1,stimuli/blank.png,eure,l,SM06HN,2023-08-11_20h44.03.385,openIAT,2023.1.3,Win32,60.13590715,
,,,,,,a,1,0.5512,,,,,,,,,0.5512,1,0,31,31,18,1,stimuli/blank.png,human,a,SM06HN,2023-08-11_20h44.03.385,openIAT,2023.1.3,Win32,60.13590715,
,,,,,,l,1,0.5019,,,,,,,,,0.5019,1,0,32,32,20,1,stimuli/blank.png,andere,l,SM06HN,2023-08-11_20h44.03.385,openIAT,2023.1.3,Win32,60.13590715,
,,,,,,l,1,0.5175,,,,,,,,,0.5175,1,0,33,33,39,1,stimuli/blank.png,lustlos,l,SM06HN,2023-08-11_20h44.03.385,openIAT,2023.1.3,Win32,60.13590715,
,,,,,,a,1,0.5345,,,,,,,,,0.5345,1,0,34,34,30,1,stimuli/blank.png,aktiv,a,SM06HN,2023-08-11_20h44.03.385,openIAT,2023.1.3,Win32,60.13590715,
,,,,,,l,0,0.4514,,,,,,,,,0.4514,0,0,35,35,16,1,stimuli/blank.png,begabt,a,SM06HN,2023-08-11_20h44.03.385,openIAT,2023.1.3,Win32,60.13590715,
,,,,,,a,1,0.4679,,,,,,,,,0.4679,1,0,36,36,1,1,stimuli/blank.png,ich,a,SM06HN,2023-08-11_20h44.03.385,openIAT,2023.1.3,Win32,60.13590715,
,,,,,,l,0,0.6521,,,,,,,,,0.6521,0,0,37,37,34,1,stimuli/blank.png,gerecht,a,SM06HN,2023-08-11_20h44.03.385,openIAT,2023.1.3,Win32,60.13590715,
,,,,,,a,1,0.9334,,,,,,,,,0.9334,1,0,38,38,12,1,stimuli/blank.png,fröhlich,a,SM06HN,2023-08-11_20h44.03.385,openIAT,2023.1.3,Win32,60.13590715,
,,,,,,l,1,0.5339,,,,,,,,,0.5339,1,0,39,39,19,1,stimuli/blank.png,lustlos,l,SM06HN,2023-08-11_20h44.03.385,openIAT,2023.1.3,Win32,60.13590715,
,,,,,,a,1,0.7203,,,,,,,,,0.7203,1,0,0,0,2,1,stimuli/blank.png,ihr,a,SM06HN,2023-08-11_20h44.03.385,openIAT,2023.1.3,Win32,60.13590715,
,,,,,,a,1,0.6637,,,,,,,,,0.6637,1,0,1,1,14,1,stimuli/blank.png,jene,a,SM06HN,2023-08-11_20h44.03.385,openIAT,2023.1.3,Win32,60.13590715,
,,,,,,a,1,0.6644,,,,,,,,,0.6644,1,0,2,2,12,1,stimuli/blank.png,ihr,a,SM06HN,2023-08-11_20h44.03.385,openIAT,2023.1.3,Win32,60.13590715,
,,,,,,a,1,0.513,,,,,,,,,0.513,1,0,3,3,8,1,stimuli/blank.png,eure,a,SM06HN,2023-08-11_20h44.03.385,openIAT,2023.1.3,Win32,60.13590715,
,,,,,,a,1,0.6143,,,,,,,,,0.6143,1,0,4,4,16,1,stimuli/blank.png,euch,a,SM06HN,2023-08-11_20h44.03.385,openIAT,2023.1.3,Win32,60.13590715,
,,,,,,l,1,0.4302,,,,,,,,,0.4302,1,0,5,5,11,1,stimuli/blank.png,ich,l,SM06HN,2023-08-11_20h44.03.385,openIAT,2023.1.3,Win32,60.13590715,
,,,,,,l,1,0.4934,,,,,,,,,0.4934,1,0,6,6,13,1,stimuli/blank.png,mir,l,SM06HN,2023-08-11_20h44.03.385,openIAT,2023.1.3,Win32,60.13590715,
,,,,,,l,1,0.4786,,,,,,,,,0.4786,1,0,7,7,19,1,stimuli/blank.png,selbst,l,SM06HN,2023-08-11_20h44.03.385,openIAT,2023.1.3,Win32,60.13590715,
,,,,,,l,0,0.5487,,,,,,,,,0.5487,0,0,8,8,6,1,stimuli/blank.png,euch,a,SM06HN,2023-08-11_20h44.03.385,openIAT,2023.1.3,Win32,60.13590715,
,,,,,,l,1,1.0811,,,,,,,,,1.0811,1,0,9,9,17,1,stimuli/blank.png,eigene,l,SM06HN,2023-08-11_20h44.03.385,openIAT,2023.1.3,Win32,60.13590715,
,,,,,,l,1,0.7141,,,,,,,,,0.7141,1,0,10,10,5,1,stimuli/blank.png,meine,l,SM06HN,2023-08-11_20h44.03.385,openIAT,2023.1.3,Win32,60.13590715,
,,,,,,a,1,0.6179,,,,,,,,,0.6179,1,0,11,11,18,1,stimuli/blank.png,eure,a,SM06HN,2023-08-11_20h44.03.385,openIAT,2023.1.3,Win32,60.13590715,
,,,,,,l,1,0.463,,,,,,,,,0.463,1,0,12,12,3,1,stimuli/blank.png,mir,l,SM06HN,2023-08-11_20h44.03.385,openIAT,2023.1.3,Win32,60.13590715,
,,,,,,a,1,0.5634,,,,,,,,,0.5634,1,0,13,13,10,1,stimuli/blank.png,andere,a,SM06HN,2023-08-11_20h44.03.385,openIAT,2023.1.3,Win32,60.13590715,
,,,,,,l,1,0.9846,,,,,,,,,0.9846,1,0,14,14,9,1,stimuli/blank.png,selbst,l,SM06HN,2023-08-11_20h44.03.385,openIAT,2023.1.3,Win32,60.13590715,
,,,,,,l,1,0.6131,,,,,,,,,0.6131,1,0,15,15,15,1,stimuli/blank.png,meine,l,SM06HN,2023-08-11_20h44.03.385,openIAT,2023.1.3,Win32,60.13590715,
,,,,,,l,1,0.4274,,,,,,,,,0.4274,1,0,16,16,1,1,stimuli/blank.png,ich,l,SM06HN,2023-08-11_20h44.03.385,openIAT,2023.1.3,Win32,60.13590715,
,,,,,,a,1,0.5321,,,,,,,,,0.5321,1,0,17,17,4,1,stimuli/blank.png,jene,a,SM06HN,2023-08-11_20h44.03.385,openIAT,2023.1.3,Win32,60.13590715,
,,,,,,l,1,0.5792,,,,,,,,,0.5792,1,0,18,18,7,1,stimuli/blank.png,eigene,l,SM06HN,2023-08-11_20h44.03.385,openIAT,2023.1.3,Win32,60.13590715,
,,,,,,l,0,0.4799,,,,,,,,,0.4799,0,0,19,19,0,1,stimuli/blank.png,andere,a,SM06HN,2023-08-11_20h44.03.385,openIAT,2023.1.3,Win32,60.13590715,
,,,,,,a,1,0.7941,,,,,,,,,0.7941,1,0,0,0,2,1,stimuli/blank.png,ihr,a,SM06HN,2023-08-11_20h44.03.385,openIAT,2023.1.3,Win32,60.13590715,
,,,,,,a,0,0.7797,,,,,,,,,0.7797,0,0,1,1,15,1,stimuli/blank.png,träge,l,SM06HN,2023-08-11_20h44.03.385,openIAT,2023.1.3,Win32,60.13590715,
,,,,,,l,1,0.9638,,,,,,,,,0.9638,1,0,2,2,19,1,stimuli/blank.png,lustlos,l,SM06HN,2023-08-11_20h44.03.385,openIAT,2023.1.3,Win32,60.13590715,
,,,,,,a,1,0.5513,,,,,,,,,0.5513,1,0,3,3,8,1,stimuli/blank.png,eure,a,SM06HN,2023-08-11_20h44.03.385,openIAT,2023.1.3,Win32,60.13590715,
,,,,,,a,1,0.9296,,,,,,,,,0.9296,1,0,4,4,0,1,stimuli/blank.png,andere,a,SM06HN,2023-08-11_20h44.03.385,openIAT,2023.1.3,Win32,60.13590715,
,,,,,,l,0,1.2134,,,,,,,,,1.2134,0,0,5,5,16,1,stimuli/blank.png,begabt,a,SM06HN,2023-08-11_20h44.03.385,openIAT,2023.1.3,Win32,60.13590715,
,,,,,,a,1,1.5816,,,,,,,,,1.5816,1,0,6,6,4,1,stimuli/blank.png,jene,a,SM06HN,2023-08-11_20h44.03.385,openIAT,2023.1.3,Win32,60.13590715,
,,,,,,l,1,0.6301,,,,,,,,,0.6301,1,0,7,7,9,1,stimuli/blank.png,selbst,l,SM06HN,2023-08-11_20h44.03.385,openIAT,2023.1.3,Win32,60.13590715,
,,,,,,a,0,0.7633,,,,,,,,,0.7633,0,0,8,8,11,1,stimuli/blank.png,brutal,l,SM06HN,2023-08-11_20h44.03.385,openIAT,2023.1.3,Win32,60.13590715,
,,,,,,l,1,1.0663,,,,,,,,,1.0663,1,0,9,9,5,1,stimuli/blank.png,meine,l,SM06HN,2023-08-11_20h44.03.385,openIAT,2023.1.3,Win32,60.13590715,
,,,,,,a,1,0.7302,,,,,,,,,0.7302,1,0,10,10,12,1,stimuli/blank.png,fröhlich,a,SM06HN,2023-08-11_20h44.03.385,openIAT,2023.1.3,Win32,60.13590715,
,,,,,,l,1,0.7497,,,,,,,,,0.7497,1,0,11,11,13,1,stimuli/blank.png,verlogen,l,SM06HN,2023-08-11_20h44.03.385,openIAT,2023.1.3,Win32,60.13590715,
,,,,,,l,1,0.5964,,,,,,,,,0.5964,1,0,12,12,1,1,stimuli/blank.png,ich,l,SM06HN,2023-08-11_20h44.03.385,openIAT,2023.1.3,Win32,60.13590715,
,,,,,,a,1,0.6137,,,,,,,,,0.6137,1,0,13,13,10,1,stimuli/blank.png,aktiv,a,SM06HN,2023-08-11_20h44.03.385,openIAT,2023.1.3,Win32,60.13590715,
,,,,,,l,1,0.5134,,,,,,,,,0.5134,1,0,14,14,3,1,stimuli/blank.png,mir,l,SM06HN,2023-08-11_20h44.03.385,openIAT,2023.1.3,Win32,60.13590715,
,,,,,,a,1,0.6791,,,,,,,,,0.6791,1,0,15,15,6,1,stimuli/blank.png,euch,a,SM06HN,2023-08-11_20h44.03.385,openIAT,2023.1.3,Win32,60.13590715,
,,,,,,a,1,0.746,,,,,,,,,0.746,1,0,16,16,14,1,stimuli/blank.png,gerecht,a,SM06HN,2023-08-11_20h44.03.385,openIAT,2023.1.3,Win32,60.13590715,
,,,,,,l,1,0.6999,,,,,,,,,0.6999,1,0,17,17,17,1,stimuli/blank.png,eitel,l,SM06HN,2023-08-11_20h44.03.385,openIAT,2023.1.3,Win32,60.13590715,
,,,,,,l,1,0.7132,,,,,,,,,0.7132,1,0,18,18,7,1,stimuli/blank.png,eigene,l,SM06HN,2023-08-11_20h44.03.385,openIAT,2023.1.3,Win32,60.13590715,
,,,,,,a,1,0.6764,,,,,,,,,0.6764,1,0,19,19,18,1,stimuli/blank.png,human,a,SM06HN,2023-08-11_20h44.03.385,openIAT,2023.1.3,Win32,60.13590715,
,,,,,,l,0,1.078,,,,,,,,,1.078,0,0,0,0,30,1,stimuli/blank.png,aktiv,a,SM06HN,2023-08-11_20h44.03.385,openIAT,2023.1.3,Win32,60.13590715,
,,,,,,l,1,1.0985,,,,,,,,,1.0985,1,0,1,1,5,1,stimuli/blank.png,meine,l,SM06HN,2023-08-11_20h44.03.385,openIAT,2023.1.3,Win32,60.13590715,
,,,,,,a,1,0.4327,,,,,,,,,0.4327,1,0,2,2,4,1,stimuli/blank.png,jene,a,SM06HN,2023-08-11_20h44.03.385,openIAT,2023.1.3,Win32,60.13590715,
,,,,,,l,1,0.4667,,,,,,,,,0.4667,1,0,3,3,1,1,stimuli/blank.png,ich,l,SM06HN,2023-08-11_20h44.03.385,openIAT,2023.1.3,Win32,60.13590715,
,,,,,,l,1,0.5138,,,,,,,,,0.5138,1,0,4,4,13,1,stimuli/blank.png,verlogen,l,SM06HN,2023-08-11_20h44.03.385,openIAT,2023.1.3,Win32,60.13590715,
,,,,,,a,1,0.8504,,,,,,,,,0.8504,1,0,5,5,14,1,stimuli/blank.png,gerecht,a,SM06HN,2023-08-11_20h44.03.385,openIAT,2023.1.3,Win32,60.13590715,
,,,,,,l,0,0.5793,,,,,,,,,0.5793,0,0,6,6,18,1,stimuli/blank.png,human,a,SM06HN,2023-08-11_20h44.03.385,openIAT,2023.1.3,Win32,60.13590715,
,,,,,,l,1,1.0128,,,,,,,,,1.0128,1,0,7,7,7,1,stimuli/blank.png,eigene,l,SM06HN,2023-08-11_20h44.03.385,openIAT,2023.1.3,Win32,60.13590715,
,,,,,,a,1,0.7965,,,,,,,,,0.7965,1,0,8,8,24,1,stimuli/blank.png,jene,a,SM06HN,2023-08-11_20h44.03.385,openIAT,2023.1.3,Win32,60.13590715,
,,,,,,a,1,0.7788,,,,,,,,,0.7788,1,0,9,9,20,1,stimuli/blank.png,andere,a,SM06HN,2023-08-11_20h44.03.385,openIAT,2023.1.3,Win32,60.13590715,
,,,,,,l,0,0.5136,,,,,,,,,0.5136,0,0,10,10,38,1,stimuli/blank.png,human,a,SM06HN,2023-08-11_20h44.03.385,openIAT,2023.1.3,Win32,60.13590715,
,,,,,,a,1,1.0011,,,,,,,,,1.0011,1,0,11,11,22,1,stimuli/blank.png,ihr,a,SM06HN,2023-08-11_20h44.03.385,openIAT,2023.1.3,Win32,60.13590715,
,,,,,,a,1,0.5665,,,,,,,,,0.5665,1,0,12,12,2,1,stimuli/blank.png,ihr,a,SM06HN,2023-08-11_20h44.03.385,openIAT,2023.1.3,Win32,60.13590715,
,,,,,,l,1,0.4165,,,,,,,,,0.4165,1,0,13,13,23,1,stimuli/blank.png,mir,l,SM06HN,2023-08-11_20h44.03.385,openIAT,2023.1.3,Win32,60.13590715,
,,,,,,l,1,0.932,,,,,,,,,0.932,1,0,14,14,31,1,stimuli/blank.png,brutal,l,SM06HN,2023-08-11_20h44.03.385,openIAT,2023.1.3,Win32,60.13590715,
,,,,,,l,1,0.5159,,,,,,,,,0.5159,1,0,15,15,35,1,stimuli/blank.png,träge,l,SM06HN,2023-08-11_20h44.03.385,openIAT,2023.1.3,Win32,60.13590715,
,,,,,,l,1,0.4278,,,,,,,,,0.4278,1,0,16,16,33,1,stimuli/blank.png,verlogen,l,SM06HN,2023-08-11_20h44.03.385,openIAT,2023.1.3,Win32,60.13590715,
,,,,,,l,0,0.4828,,,,,,,,,0.4828,0,0,17,17,6,1,stimuli/blank.png,euch,a,SM06HN,2023-08-11_20h44.03.385,openIAT,2023.1.3,Win32,60.13590715,
,,,,,,l,1,0.6368,,,,,,,,,0.6368,1,0,18,18,11,1,stimuli/blank.png,brutal,l,SM06HN,2023-08-11_20h44.03.385,openIAT,2023.1.3,Win32,60.13590715,
,,,,,,a,1,0.5267,,,,,,,,,0.5267,1,0,19,19,12,1,stimuli/blank.png,fröhlich,a,SM06HN,2023-08-11_20h44.03.385,openIAT,2023.1.3,Win32,60.13590715,
,,,,,,l,1,0.4487,,,,,,,,,0.4487,1,0,20,20,17,1,stimuli/blank.png,eitel,l,SM06HN,2023-08-11_20h44.03.385,openIAT,2023.1.3,Win32,60.13590715,
,,,,,,a,1,0.563,,,,,,,,,0.563,1,0,21,21,28,1,stimuli/blank.png,eure,a,SM06HN,2023-08-11_20h44.03.385,openIAT,2023.1.3,Win32,60.13590715,
,,,,,,a,1,1.1967,,,,,,,,,1.1967,1,0,22,22,36,1,stimuli/blank.png,begabt,a,SM06HN,2023-08-11_20h44.03.385,openIAT,2023.1.3,Win32,60.13590715,
,,,,,,a,1,0.5774,,,,,,,,,0.5774,1,0,23,23,10,1,stimuli/blank.png,aktiv,a,SM06HN,2023-08-11_20h44.03.385,openIAT,2023.1.3,Win32,60.13590715,
,,,,,,l,1,0.6518,,,,,,,,,0.6518,1,0,24,24,9,1,stimuli/blank.png,selbst,l,SM06HN,2023-08-11_20h44.03.385,openIAT,2023.1.3,Win32,60.13590715,
,,,,,,a,1,0.6789,,,,,,,,,0.6789,1,0,25,25,16,1,stimuli/blank.png,begabt,a,SM06HN,2023-08-11_20h44.03.385,openIAT,2023.1.3,Win32,60.13590715,
,,,,,,a,1,1.0656,,,,,,,,,1.0656,1,0,26,26,0,1,stimuli/blank.png,andere,a,SM06HN,2023-08-11_20h44.03.385,openIAT,2023.1.3,Win32,60.13590715,
,,,,,,l,0,0.51,,,,,,,,,0.51,0,0,27,27,26,1,stimuli/blank.png,euch,a,SM06HN,2023-08-11_20h44.03.385,openIAT,2023.1.3,Win32,60.13590715,
,,,,,,l,1,0.5024,,,,,,,,,0.5024,1,0,28,28,3,1,stimuli/blank.png,mir,l,SM06HN,2023-08-11_20h44.03.385,openIAT,2023.1.3,Win32,60.13590715,
,,,,,,a,0,0.5957,,,,,,,,,0.5957,0,0,29,29,37,1,stimuli/blank.png,eitel,l,SM06HN,2023-08-11_20h44.03.385,openIAT,2023.1.3,Win32,60.13590715,
,,,,,,a,1,0.5499,,,,,,,,,0.5499,1,0,30,30,34,1,stimuli/blank.png,gerecht,a,SM06HN,2023-08-11_20h44.03.385,openIAT,2023.1.3,Win32,60.13590715,
,,,,,,l,1,0.5187,,,,,,,,,0.5187,1,0,31,31,21,1,stimuli/blank.png,ich,l,SM06HN,2023-08-11_20h44.03.385,openIAT,2023.1.3,Win32,60.13590715,
,,,,,,l,1,0.882,,,,,,,,,0.882,1,0,32,32,29,1,stimuli/blank.png,selbst,l,SM06HN,2023-08-11_20h44.03.385,openIAT,2023.1.3,Win32,60.13590715,
,,,,,,l,1,0.6379,,,,,,,,,0.6379,1,0,33,33,25,1,stimuli/blank.png,meine,l,SM06HN,2023-08-11_20h44.03.385,openIAT,2023.1.3,Win32,60.13590715,
,,,,,,a,1,0.9614,,,,,,,,,0.9614,1,0,34,34,8,1,stimuli/blank.png,eure,a,SM06HN,2023-08-11_20h44.03.385,openIAT,2023.1.3,Win32,60.13590715,
,,,,,,l,0,0.6682,,,,,,,,,0.6682,0,0,35,35,32,1,stimuli/blank.png,fröhlich,a,SM06HN,2023-08-11_20h44.03.385,openIAT,2023.1.3,Win32,60.13590715,
,,,,,,l,1,0.5519,,,,,,,,,0.5519,1,0,36,36,15,1,stimuli/blank.png,träge,l,SM06HN,2023-08-11_20h44.03.385,openIAT,2023.1.3,Win32,60.13590715,
,,,,,,l,1,0.8675,,,,,,,,,0.8675,1,0,37,37,39,1,stimuli/blank.png,lustlos,l,SM06HN,2023-08-11_20h44.03.385,openIAT,2023.1.3,Win32,60.13590715,
,,,,,,l,1,0.4186,,,,,,,,,0.4186,1,0,38,38,19,1,stimuli/blank.png,lustlos,l,SM06HN,2023-08-11_20h44.03.385,openIAT,2023.1.3,Win32,60.13590715,
,,,,,,l,1,0.4644,,,,,,,,,0.4644,1,0,39,39,27,1,stimuli/blank.png,eigene,l,SM06HN,2023-08-11_20h44.03.385,openIAT,2023.1.3,Win32,60.13590715,
,,,,,,,,,,,,,,,,,,,,,,,,,,,SM06HN,2023-08-11_20h44.03.385,openIAT,2023.1.3,Win32,60.13590715,
