instr_done_touch.x,instr_done_touch.y,instr_done_touch.leftButton,instr_done_touch.midButton,instr_done_touch.rightButton,instr_done_touch.clicked_name,key_resp.keys,key_resp.corr,touch_resp.x,touch_resp.y,touch_resp.leftButton,touch_resp.midButton,touch_resp.rightButton,touch_resp.time,touch_resp.clicked_name,rt,corr,trials.thisRepN,trials.thisTrialN,trials.thisN,trials.thisIndex,trials.ran,stimImage,stimWord,CorrAns,participant,date,expName,psychopyVersion,OS,frameRate,return_tic
0.112195122,-0.387804878,1,0,0,instr_done_button,,0,-0.406097561,-0.302439024,1,0,0,9.632,button_left,9.632,1,0,0,0,14,1,stimuli/blank.png,gerecht,a,SN07SR,2023-08-06_20h34.57.337,openIAT,2023.1.3,MacIntel,55.55555556,
,,,,,,,0,-0.335365854,-0.320731707,1,0,0,1.068,button_left,1.068,1,0,1,1,4,1,stimuli/blank.png,gerecht,a,SN07SR,2023-08-06_20h34.57.337,openIAT,2023.1.3,MacIntel,55.55555556,
,,,,,,,0,-0.347560976,-0.246341463,1,0,0,1.114,button_left,1.114,1,0,2,2,18,1,stimuli/blank.png,human,a,SN07SR,2023-08-06_20h34.57.337,openIAT,2023.1.3,MacIntel,55.55555556,
,,,,,,,0,-0.325609756,-0.306097561,1,0,0,1.339,button_left,1.339,1,0,3,3,12,1,stimuli/blank.png,fröhlich,a,SN07SR,2023-08-06_20h34.57.337,openIAT,2023.1.3,MacIntel,55.55555556,
,,,,,,,0,0.392682927,-0.342682927,1,0,0,0.875,button_right,0.875,1,0,4,4,11,1,stimuli/blank.png,brutal,l,SN07SR,2023-08-06_20h34.57.337,openIAT,2023.1.3,MacIntel,55.55555556,
,,,,,,,0,-0.304878049,-0.296341463,1,0,0,1.024,button_left,1.024,1,0,5,5,16,1,stimuli/blank.png,begabt,a,SN07SR,2023-08-06_20h34.57.337,openIAT,2023.1.3,MacIntel,55.55555556,
,,,,,,,0,-0.324390244,-0.319512195,1,0,0,0.99,button_left,0.99,0,0,6,6,17,1,stimuli/blank.png,eitel,l,SN07SR,2023-08-06_20h34.57.337,openIAT,2023.1.3,MacIntel,55.55555556,
,,,,,,,0,0.329268293,-0.264634146,1,0,0,0.756,button_right,0.756,1,0,7,7,13,1,stimuli/blank.png,verlogen,l,SN07SR,2023-08-06_20h34.57.337,openIAT,2023.1.3,MacIntel,55.55555556,
,,,,,,,0,0.375609756,-0.342682927,1,0,0,0.854,button_right,0.854,1,0,8,8,3,1,stimuli/blank.png,verlogen,l,SN07SR,2023-08-06_20h34.57.337,openIAT,2023.1.3,MacIntel,55.55555556,
,,,,,,,0,0.409756098,-0.373170732,1,0,0,0.856,button_right,0.856,1,0,9,9,7,1,stimuli/blank.png,eitel,l,SN07SR,2023-08-06_20h34.57.337,openIAT,2023.1.3,MacIntel,55.55555556,
,,,,,,,0,-0.367073171,-0.270731707,1,0,0,0.773,button_left,0.773,1,0,10,10,10,1,stimuli/blank.png,aktiv,a,SN07SR,2023-08-06_20h34.57.337,openIAT,2023.1.3,MacIntel,55.55555556,
,,,,,,,0,0.47195122,-0.341463415,1,0,0,0.974,button_right,0.974,1,0,11,11,5,1,stimuli/blank.png,träge,l,SN07SR,2023-08-06_20h34.57.337,openIAT,2023.1.3,MacIntel,55.55555556,
,,,,,,,0,0.487804878,-0.32195122,1,0,0,0.559,button_right,0.559,1,0,12,12,15,1,stimuli/blank.png,träge,l,SN07SR,2023-08-06_20h34.57.337,openIAT,2023.1.3,MacIntel,55.55555556,
,,,,,,,0,-0.418292683,-0.3,1,0,0,0.624,button_left,0.624,1,0,13,13,6,1,stimuli/blank.png,begabt,a,SN07SR,2023-08-06_20h34.57.337,openIAT,2023.1.3,MacIntel,55.55555556,
,,,,,,,0,-0.420731707,-0.298780488,1,0,0,0.647,button_left,0.647,1,0,14,14,0,1,stimuli/blank.png,aktiv,a,SN07SR,2023-08-06_20h34.57.337,openIAT,2023.1.3,MacIntel,55.55555556,
,,,,,,,0,0.476829268,-0.32804878,1,0,0,0.616,button_right,0.616,1,0,15,15,1,1,stimuli/blank.png,brutal,l,SN07SR,2023-08-06_20h34.57.337,openIAT,2023.1.3,MacIntel,55.55555556,
,,,,,,,0,0.495121951,-0.340243902,1,0,0,0.997,button_right,0.997,1,0,16,16,19,1,stimuli/blank.png,lustlos,l,SN07SR,2023-08-06_20h34.57.337,openIAT,2023.1.3,MacIntel,55.55555556,
,,,,,,,0,-0.403658537,-0.308536585,1,0,0,0.731,button_left,0.731,1,0,17,17,8,1,stimuli/blank.png,human,a,SN07SR,2023-08-06_20h34.57.337,openIAT,2023.1.3,MacIntel,55.55555556,
,,,,,,,0,0.484146341,-0.332926829,1,0,0,1.107,button_right,1.107,1,0,18,18,9,1,stimuli/blank.png,lustlos,l,SN07SR,2023-08-06_20h34.57.337,openIAT,2023.1.3,MacIntel,55.55555556,
,,,,,,,0,-0.419512195,-0.302439024,1,0,0,0.673,button_left,0.673,1,0,19,19,2,1,stimuli/blank.png,fröhlich,a,SN07SR,2023-08-06_20h34.57.337,openIAT,2023.1.3,MacIntel,55.55555556,
,,,,,,,0,0.48902439,-0.370731707,1,0,0,0.788,button_right,0.788,1,0,0,0,14,1,stimuli/blank.png,jene,l,SN07SR,2023-08-06_20h34.57.337,openIAT,2023.1.3,MacIntel,55.55555556,
,,,,,,,0,-0.435365854,-0.302439024,1,0,0,0.932,button_left,0.932,1,0,1,1,7,1,stimuli/blank.png,eigene,a,SN07SR,2023-08-06_20h34.57.337,openIAT,2023.1.3,MacIntel,55.55555556,
,,,,,,,0,-0.429268293,-0.295121951,1,0,0,0.59,button_left,0.59,1,0,2,2,1,1,stimuli/blank.png,ich,a,SN07SR,2023-08-06_20h34.57.337,openIAT,2023.1.3,MacIntel,55.55555556,
,,,,,,,0,0.459756098,-0.329268293,1,0,0,1.032,button_right,1.032,1,0,3,3,4,1,stimuli/blank.png,jene,l,SN07SR,2023-08-06_20h34.57.337,openIAT,2023.1.3,MacIntel,55.55555556,
,,,,,,,0,0.452439024,-0.340243902,1,0,0,0.673,button_right,0.673,1,0,4,4,18,1,stimuli/blank.png,eure,l,SN07SR,2023-08-06_20h34.57.337,openIAT,2023.1.3,MacIntel,55.55555556,
,,,,,,,0,-0.418292683,-0.301219512,1,0,0,0.558,button_left,0.558,1,0,5,5,13,1,stimuli/blank.png,mir,a,SN07SR,2023-08-06_20h34.57.337,openIAT,2023.1.3,MacIntel,55.55555556,
,,,,,,,0,0.462195122,-0.341463415,1,0,0,0.807,button_right,0.807,1,0,6,6,8,1,stimuli/blank.png,eure,l,SN07SR,2023-08-06_20h34.57.337,openIAT,2023.1.3,MacIntel,55.55555556,
,,,,,,,0,-0.42195122,-0.307317073,1,0,0,0.632,button_left,0.632,1,0,7,7,9,1,stimuli/blank.png,selbst,a,SN07SR,2023-08-06_20h34.57.337,openIAT,2023.1.3,MacIntel,55.55555556,
,,,,,,,0,-0.419512195,-0.306097561,1,0,0,0.538,button_left,0.538,1,0,8,8,3,1,stimuli/blank.png,mir,a,SN07SR,2023-08-06_20h34.57.337,openIAT,2023.1.3,MacIntel,55.55555556,
,,,,,,,0,0.467073171,-0.336585366,1,0,0,0.656,button_right,0.656,1,0,9,9,0,1,stimuli/blank.png,andere,l,SN07SR,2023-08-06_20h34.57.337,openIAT,2023.1.3,MacIntel,55.55555556,
,,,,,,,0,-0.423170732,-0.3,1,0,0,0.875,button_left,0.875,1,0,10,10,19,1,stimuli/blank.png,selbst,a,SN07SR,2023-08-06_20h34.57.337,openIAT,2023.1.3,MacIntel,55.55555556,
,,,,,,,0,-0.430487805,-0.295121951,1,0,0,0.639,button_left,0.639,1,0,11,11,15,1,stimuli/blank.png,meine,a,SN07SR,2023-08-06_20h34.57.337,openIAT,2023.1.3,MacIntel,55.55555556,
,,,,,,,0,-0.414634146,-0.312195122,1,0,0,0.65,button_left,0.65,1,0,12,12,17,1,stimuli/blank.png,eigene,a,SN07SR,2023-08-06_20h34.57.337,openIAT,2023.1.3,MacIntel,55.55555556,
,,,,,,,0,0.456097561,-0.33902439,1,0,0,0.749,button_right,0.749,1,0,13,13,12,1,stimuli/blank.png,ihr,l,SN07SR,2023-08-06_20h34.57.337,openIAT,2023.1.3,MacIntel,55.55555556,
,,,,,,,0,-0.424390244,-0.3,1,0,0,0.783,button_left,0.783,1,0,14,14,11,1,stimuli/blank.png,ich,a,SN07SR,2023-08-06_20h34.57.337,openIAT,2023.1.3,MacIntel,55.55555556,
,,,,,,,0,0.469512195,-0.332926829,1,0,0,0.741,button_right,0.741,1,0,15,15,10,1,stimuli/blank.png,andere,l,SN07SR,2023-08-06_20h34.57.337,openIAT,2023.1.3,MacIntel,55.55555556,
,,,,,,,0,0.462195122,-0.325609756,1,0,0,0.641,button_right,0.641,1,0,16,16,6,1,stimuli/blank.png,euch,l,SN07SR,2023-08-06_20h34.57.337,openIAT,2023.1.3,MacIntel,55.55555556,
,,,,,,,0,0.46097561,-0.336585366,1,0,0,0.576,button_right,0.576,1,0,17,17,16,1,stimuli/blank.png,euch,l,SN07SR,2023-08-06_20h34.57.337,openIAT,2023.1.3,MacIntel,55.55555556,
,,,,,,,0,-0.442682927,-0.313414634,1,0,0,0.466,button_left,0.466,1,0,18,18,5,1,stimuli/blank.png,meine,a,SN07SR,2023-08-06_20h34.57.337,openIAT,2023.1.3,MacIntel,55.55555556,
,,,,,,,0,0.457317073,-0.331707317,1,0,0,0.707,button_right,0.707,1,0,19,19,2,1,stimuli/blank.png,ihr,l,SN07SR,2023-08-06_20h34.57.337,openIAT,2023.1.3,MacIntel,55.55555556,
,,,,,,,0,-0.457317073,-0.309756098,1,0,0,0.791,button_left,0.791,1,0,0,0,18,1,stimuli/blank.png,human,a,SN07SR,2023-08-06_20h34.57.337,openIAT,2023.1.3,MacIntel,55.55555556,
,,,,,,,0,-0.487804878,-0.303658537,1,0,0,0.616,button_left,0.616,1,0,1,1,9,1,stimuli/blank.png,selbst,a,SN07SR,2023-08-06_20h34.57.337,openIAT,2023.1.3,MacIntel,55.55555556,
,,,,,,,0,0.459756098,-0.334146341,1,0,0,0.574,button_right,0.574,1,0,2,2,13,1,stimuli/blank.png,verlogen,l,SN07SR,2023-08-06_20h34.57.337,openIAT,2023.1.3,MacIntel,55.55555556,
,,,,,,,0,-0.484146341,-0.313414634,1,0,0,0.6,button_left,0.6,1,0,3,3,10,1,stimuli/blank.png,aktiv,a,SN07SR,2023-08-06_20h34.57.337,openIAT,2023.1.3,MacIntel,55.55555556,
,,,,,,,0,0.457317073,-0.331707317,1,0,0,0.724,button_right,0.724,1,0,4,4,17,1,stimuli/blank.png,eitel,l,SN07SR,2023-08-06_20h34.57.337,openIAT,2023.1.3,MacIntel,55.55555556,
,,,,,,,0,0.462195122,-0.331707317,1,0,0,0.6,button_right,0.6,1,0,5,5,2,1,stimuli/blank.png,ihr,l,SN07SR,2023-08-06_20h34.57.337,openIAT,2023.1.3,MacIntel,55.55555556,
,,,,,,,0,0.454878049,-0.33902439,1,0,0,0.774,button_right,0.774,1,0,6,6,15,1,stimuli/blank.png,träge,l,SN07SR,2023-08-06_20h34.57.337,openIAT,2023.1.3,MacIntel,55.55555556,
,,,,,,,0,-0.473170732,-0.32804878,1,0,0,0.632,button_left,0.632,1,0,7,7,3,1,stimuli/blank.png,mir,a,SN07SR,2023-08-06_20h34.57.337,openIAT,2023.1.3,MacIntel,55.55555556,
,,,,,,,0,-0.481707317,-0.318292683,1,0,0,0.6,button_left,0.6,1,0,8,8,1,1,stimuli/blank.png,ich,a,SN07SR,2023-08-06_20h34.57.337,openIAT,2023.1.3,MacIntel,55.55555556,
,,,,,,,0,0.456097561,-0.330487805,1,0,0,0.639,button_right,0.639,1,0,9,9,8,1,stimuli/blank.png,eure,l,SN07SR,2023-08-06_20h34.57.337,openIAT,2023.1.3,MacIntel,55.55555556,
,,,,,,,0,0.470731707,-0.330487805,1,0,0,0.575,button_right,0.575,1,0,10,10,0,1,stimuli/blank.png,andere,l,SN07SR,2023-08-06_20h34.57.337,openIAT,2023.1.3,MacIntel,55.55555556,
,,,,,,,0,-0.476829268,-0.323170732,1,0,0,0.849,button_left,0.849,1,0,11,11,16,1,stimuli/blank.png,begabt,a,SN07SR,2023-08-06_20h34.57.337,openIAT,2023.1.3,MacIntel,55.55555556,
,,,,,,,0,0.459756098,-0.331707317,1,0,0,0.615,button_right,0.615,1,0,12,12,19,1,stimuli/blank.png,lustlos,l,SN07SR,2023-08-06_20h34.57.337,openIAT,2023.1.3,MacIntel,55.55555556,
,,,,,,,0,-0.481707317,-0.314634146,1,0,0,0.624,button_left,0.624,1,0,13,13,12,1,stimuli/blank.png,fröhlich,a,SN07SR,2023-08-06_20h34.57.337,openIAT,2023.1.3,MacIntel,55.55555556,
,,,,,,,0,0.46097561,-0.334146341,1,0,0,0.55,button_right,0.55,1,0,14,14,4,1,stimuli/blank.png,jene,l,SN07SR,2023-08-06_20h34.57.337,openIAT,2023.1.3,MacIntel,55.55555556,
,,,,,,,0,-0.474390244,-0.326829268,1,0,0,0.699,button_left,0.699,1,0,15,15,14,1,stimuli/blank.png,gerecht,a,SN07SR,2023-08-06_20h34.57.337,openIAT,2023.1.3,MacIntel,55.55555556,
,,,,,,,0,0.462195122,-0.329268293,1,0,0,0.566,button_right,0.566,1,0,16,16,11,1,stimuli/blank.png,brutal,l,SN07SR,2023-08-06_20h34.57.337,openIAT,2023.1.3,MacIntel,55.55555556,
,,,,,,,0,-0.480487805,-0.315853659,1,0,0,0.608,button_left,0.608,1,0,17,17,7,1,stimuli/blank.png,eigene,a,SN07SR,2023-08-06_20h34.57.337,openIAT,2023.1.3,MacIntel,55.55555556,
,,,,,,,0,0.458536585,-0.319512195,1,0,0,0.757,button_right,0.757,1,0,18,18,6,1,stimuli/blank.png,euch,l,SN07SR,2023-08-06_20h34.57.337,openIAT,2023.1.3,MacIntel,55.55555556,
,,,,,,,0,-0.47804878,-0.320731707,1,0,0,0.558,button_left,0.558,1,0,19,19,5,1,stimuli/blank.png,meine,a,SN07SR,2023-08-06_20h34.57.337,openIAT,2023.1.3,MacIntel,55.55555556,
,,,,,,,0,-0.458536585,-0.295121951,1,0,0,0.616,button_left,0.616,1,0,0,0,27,1,stimuli/blank.png,eigene,a,SN07SR,2023-08-06_20h34.57.337,openIAT,2023.1.3,MacIntel,55.55555556,
,,,,,,,0,0.459756098,-0.325609756,1,0,0,0.583,button_right,0.583,1,0,1,1,4,1,stimuli/blank.png,jene,l,SN07SR,2023-08-06_20h34.57.337,openIAT,2023.1.3,MacIntel,55.55555556,
,,,,,,,0,-0.470731707,-0.331707317,1,0,0,0.59,button_left,0.59,1,0,2,2,12,1,stimuli/blank.png,fröhlich,a,SN07SR,2023-08-06_20h34.57.337,openIAT,2023.1.3,MacIntel,55.55555556,
,,,,,,,0,0.463414634,-0.320731707,1,0,0,0.733,button_right,0.733,1,0,3,3,39,1,stimuli/blank.png,lustlos,l,SN07SR,2023-08-06_20h34.57.337,openIAT,2023.1.3,MacIntel,55.55555556,
,,,,,,,0,-0.476829268,-0.326829268,1,0,0,0.533,button_left,0.533,1,0,4,4,10,1,stimuli/blank.png,aktiv,a,SN07SR,2023-08-06_20h34.57.337,openIAT,2023.1.3,MacIntel,55.55555556,
,,,,,,,0,0.458536585,-0.330487805,1,0,0,0.899,button_right,0.899,1,0,5,5,0,1,stimuli/blank.png,andere,l,SN07SR,2023-08-06_20h34.57.337,openIAT,2023.1.3,MacIntel,55.55555556,
,,,,,,,0,-0.476829268,-0.323170732,1,0,0,0.553,button_left,0.553,1,0,6,6,5,1,stimuli/blank.png,meine,a,SN07SR,2023-08-06_20h34.57.337,openIAT,2023.1.3,MacIntel,55.55555556,
,,,,,,,0,-0.468292683,-0.32804878,1,0,0,0.615,button_left,0.615,1,0,7,7,14,1,stimuli/blank.png,gerecht,a,SN07SR,2023-08-06_20h34.57.337,openIAT,2023.1.3,MacIntel,55.55555556,
,,,,,,,0,0.46097561,-0.346341463,1,0,0,0.549,button_right,0.549,1,0,8,8,13,1,stimuli/blank.png,verlogen,l,SN07SR,2023-08-06_20h34.57.337,openIAT,2023.1.3,MacIntel,55.55555556,
,,,,,,,0,-0.468292683,-0.331707317,1,0,0,0.619,button_left,0.619,1,0,9,9,25,1,stimuli/blank.png,meine,a,SN07SR,2023-08-06_20h34.57.337,openIAT,2023.1.3,MacIntel,55.55555556,
,,,,,,,0,-0.462195122,-0.33902439,1,0,0,0.65,button_left,0.65,1,0,10,10,23,1,stimuli/blank.png,mir,a,SN07SR,2023-08-06_20h34.57.337,openIAT,2023.1.3,MacIntel,55.55555556,
,,,,,,,0,-0.47195122,-0.326829268,1,0,0,0.64,button_left,0.64,1,0,11,11,1,1,stimuli/blank.png,ich,a,SN07SR,2023-08-06_20h34.57.337,openIAT,2023.1.3,MacIntel,55.55555556,
,,,,,,,0,-0.475609756,-0.323170732,1,0,0,0.55,button_left,0.55,1,0,12,12,21,1,stimuli/blank.png,ich,a,SN07SR,2023-08-06_20h34.57.337,openIAT,2023.1.3,MacIntel,55.55555556,
,,,,,,,0,-0.47195122,-0.329268293,1,0,0,0.598,button_left,0.598,1,0,13,13,9,1,stimuli/blank.png,selbst,a,SN07SR,2023-08-06_20h34.57.337,openIAT,2023.1.3,MacIntel,55.55555556,
,,,,,,,0,-0.474390244,-0.325609756,1,0,0,0.424,button_left,0.424,1,0,14,14,3,1,stimuli/blank.png,mir,a,SN07SR,2023-08-06_20h34.57.337,openIAT,2023.1.3,MacIntel,55.55555556,
,,,,,,,0,0.458536585,-0.323170732,1,0,0,0.465,button_right,0.465,1,0,15,15,33,1,stimuli/blank.png,verlogen,l,SN07SR,2023-08-06_20h34.57.337,openIAT,2023.1.3,MacIntel,55.55555556,
,,,,,,,0,0.454878049,-0.330487805,1,0,0,0.523,button_right,0.523,1,0,16,16,19,1,stimuli/blank.png,lustlos,l,SN07SR,2023-08-06_20h34.57.337,openIAT,2023.1.3,MacIntel,55.55555556,
,,,,,,,0,-0.468292683,-0.336585366,1,0,0,0.573,button_left,0.573,1,0,17,17,30,1,stimuli/blank.png,aktiv,a,SN07SR,2023-08-06_20h34.57.337,openIAT,2023.1.3,MacIntel,55.55555556,
,,,,,,,0,0.457317073,-0.319512195,1,0,0,0.617,button_right,0.617,1,0,18,18,8,1,stimuli/blank.png,eure,l,SN07SR,2023-08-06_20h34.57.337,openIAT,2023.1.3,MacIntel,55.55555556,
,,,,,,,0,0.46097561,-0.323170732,1,0,0,0.673,button_right,0.673,1,0,19,19,22,1,stimuli/blank.png,ihr,l,SN07SR,2023-08-06_20h34.57.337,openIAT,2023.1.3,MacIntel,55.55555556,
,,,,,,,0,0.457317073,-0.314634146,1,0,0,0.532,button_right,0.532,1,0,20,20,11,1,stimuli/blank.png,brutal,l,SN07SR,2023-08-06_20h34.57.337,openIAT,2023.1.3,MacIntel,55.55555556,
,,,,,,,0,-0.47804878,-0.325609756,1,0,0,0.572,button_left,0.572,1,0,21,21,29,1,stimuli/blank.png,selbst,a,SN07SR,2023-08-06_20h34.57.337,openIAT,2023.1.3,MacIntel,55.55555556,
,,,,,,,0,0.458536585,-0.319512195,1,0,0,0.583,button_right,0.583,1,0,22,22,37,1,stimuli/blank.png,eitel,l,SN07SR,2023-08-06_20h34.57.337,openIAT,2023.1.3,MacIntel,55.55555556,
,,,,,,,0,0.451219512,-0.326829268,1,0,0,1.108,button_right,1.108,1,0,23,23,6,1,stimuli/blank.png,euch,l,SN07SR,2023-08-06_20h34.57.337,openIAT,2023.1.3,MacIntel,55.55555556,
,,,,,,,0,0.457317073,-0.32804878,1,0,0,0.891,button_right,0.891,1,0,24,24,20,1,stimuli/blank.png,andere,l,SN07SR,2023-08-06_20h34.57.337,openIAT,2023.1.3,MacIntel,55.55555556,
,,,,,,,0,-0.475609756,-0.330487805,1,0,0,0.565,button_left,0.565,1,0,25,25,7,1,stimuli/blank.png,eigene,a,SN07SR,2023-08-06_20h34.57.337,openIAT,2023.1.3,MacIntel,55.55555556,
,,,,,,,0,0.447560976,-0.331707317,1,0,0,0.59,button_right,0.59,1,0,26,26,26,1,stimuli/blank.png,euch,l,SN07SR,2023-08-06_20h34.57.337,openIAT,2023.1.3,MacIntel,55.55555556,
,,,,,,,0,0.457317073,-0.32804878,1,0,0,0.649,button_right,0.649,1,0,27,27,2,1,stimuli/blank.png,ihr,l,SN07SR,2023-08-06_20h34.57.337,openIAT,2023.1.3,MacIntel,55.55555556,
,,,,,,,0,0.45,-0.325609756,1,0,0,0.558,button_right,0.558,1,0,28,28,15,1,stimuli/blank.png,träge,l,SN07SR,2023-08-06_20h34.57.337,openIAT,2023.1.3,MacIntel,55.55555556,
,,,,,,,0,-0.474390244,-0.332926829,1,0,0,0.574,button_left,0.574,1,0,29,29,18,1,stimuli/blank.png,human,a,SN07SR,2023-08-06_20h34.57.337,openIAT,2023.1.3,MacIntel,55.55555556,
,,,,,,,0,-0.479268293,-0.326829268,1,0,0,0.599,button_left,0.599,1,0,30,30,36,1,stimuli/blank.png,begabt,a,SN07SR,2023-08-06_20h34.57.337,openIAT,2023.1.3,MacIntel,55.55555556,
,,,,,,,0,0.456097561,-0.325609756,1,0,0,0.533,button_right,0.533,1,0,31,31,31,1,stimuli/blank.png,brutal,l,SN07SR,2023-08-06_20h34.57.337,openIAT,2023.1.3,MacIntel,55.55555556,
,,,,,,,0,0.456097561,-0.32804878,1,0,0,0.523,button_right,0.523,1,0,32,32,35,1,stimuli/blank.png,träge,l,SN07SR,2023-08-06_20h34.57.337,openIAT,2023.1.3,MacIntel,55.55555556,
,,,,,,,0,0.458536585,-0.323170732,1,0,0,0.532,button_right,0.532,1,0,33,33,17,1,stimuli/blank.png,eitel,l,SN07SR,2023-08-06_20h34.57.337,openIAT,2023.1.3,MacIntel,55.55555556,
,,,,,,,0,-0.479268293,-0.32804878,1,0,0,0.857,button_left,0.857,1,0,34,34,34,1,stimuli/blank.png,gerecht,a,SN07SR,2023-08-06_20h34.57.337,openIAT,2023.1.3,MacIntel,55.55555556,
,,,,,,,0,0.452439024,-0.323170732,1,0,0,0.573,button_right,0.573,1,0,35,35,24,1,stimuli/blank.png,jene,l,SN07SR,2023-08-06_20h34.57.337,openIAT,2023.1.3,MacIntel,55.55555556,
,,,,,,,0,0.451219512,-0.323170732,1,0,0,0.55,button_right,0.55,1,0,36,36,28,1,stimuli/blank.png,eure,l,SN07SR,2023-08-06_20h34.57.337,openIAT,2023.1.3,MacIntel,55.55555556,
,,,,,,,0,-0.469512195,-0.335365854,1,0,0,0.573,button_left,0.573,1,0,37,37,16,1,stimuli/blank.png,begabt,a,SN07SR,2023-08-06_20h34.57.337,openIAT,2023.1.3,MacIntel,55.55555556,
,,,,,,,0,-0.474390244,-0.334146341,1,0,0,0.541,button_left,0.541,1,0,38,38,38,1,stimuli/blank.png,human,a,SN07SR,2023-08-06_20h34.57.337,openIAT,2023.1.3,MacIntel,55.55555556,
,,,,,,,0,-0.506097561,-0.3,1,0,0,0.565,button_left,0.565,1,0,39,39,32,1,stimuli/blank.png,fröhlich,a,SN07SR,2023-08-06_20h34.57.337,openIAT,2023.1.3,MacIntel,55.55555556,
,,,,,,,0,-0.496341463,-0.325609756,1,0,0,1.15,button_left,1.15,1,0,0,0,18,1,stimuli/blank.png,eure,a,SN07SR,2023-08-06_20h34.57.337,openIAT,2023.1.3,MacIntel,55.55555556,
,,,,,,,0,-0.496341463,-0.320731707,1,0,0,0.6,button_left,0.6,1,0,1,1,10,1,stimuli/blank.png,andere,a,SN07SR,2023-08-06_20h34.57.337,openIAT,2023.1.3,MacIntel,55.55555556,
,,,,,,,0,0.458536585,-0.320731707,1,0,0,0.431,button_right,0.431,1,0,2,2,1,1,stimuli/blank.png,ich,l,SN07SR,2023-08-06_20h34.57.337,openIAT,2023.1.3,MacIntel,55.55555556,
,,,,,,,0,-0.492682927,-0.323170732,1,0,0,0.625,button_left,0.625,1,0,3,3,12,1,stimuli/blank.png,ihr,a,SN07SR,2023-08-06_20h34.57.337,openIAT,2023.1.3,MacIntel,55.55555556,
,,,,,,,0,-0.497560976,-0.320731707,1,0,0,0.704,button_left,0.704,1,0,4,4,16,1,stimuli/blank.png,euch,a,SN07SR,2023-08-06_20h34.57.337,openIAT,2023.1.3,MacIntel,55.55555556,
,,,,,,,0,0.457317073,-0.342682927,1,0,0,0.666,button_right,0.666,1,0,5,5,5,1,stimuli/blank.png,meine,l,SN07SR,2023-08-06_20h34.57.337,openIAT,2023.1.3,MacIntel,55.55555556,
,,,,,,,0,0.462195122,-0.343902439,1,0,0,0.434,button_right,0.434,1,0,6,6,3,1,stimuli/blank.png,mir,l,SN07SR,2023-08-06_20h34.57.337,openIAT,2023.1.3,MacIntel,55.55555556,
,,,,,,,0,-0.462195122,-0.301219512,1,0,0,0.45,button_left,0.45,1,0,7,7,0,1,stimuli/blank.png,andere,a,SN07SR,2023-08-06_20h34.57.337,openIAT,2023.1.3,MacIntel,55.55555556,
,,,,,,,0,-0.467073171,-0.297560976,1,0,0,0.907,button_left,0.907,1,0,8,8,6,1,stimuli/blank.png,euch,a,SN07SR,2023-08-06_20h34.57.337,openIAT,2023.1.3,MacIntel,55.55555556,
,,,,,,,0,0.452439024,-0.330487805,1,0,0,0.642,button_right,0.642,1,0,9,9,9,1,stimuli/blank.png,selbst,l,SN07SR,2023-08-06_20h34.57.337,openIAT,2023.1.3,MacIntel,55.55555556,
,,,,,,,0,-0.459756098,-0.318292683,1,0,0,0.623,button_left,0.623,1,0,10,10,8,1,stimuli/blank.png,eure,a,SN07SR,2023-08-06_20h34.57.337,openIAT,2023.1.3,MacIntel,55.55555556,
,,,,,,,0,-0.457317073,-0.315853659,1,0,0,0.95,button_left,0.95,1,0,11,11,14,1,stimuli/blank.png,jene,a,SN07SR,2023-08-06_20h34.57.337,openIAT,2023.1.3,MacIntel,55.55555556,
,,,,,,,0,-0.456097561,-0.315853659,1,0,0,0.824,button_left,0.824,1,0,12,12,2,1,stimuli/blank.png,ihr,a,SN07SR,2023-08-06_20h34.57.337,openIAT,2023.1.3,MacIntel,55.55555556,
,,,,,,,0,-0.456097561,-0.314634146,1,0,0,0.575,button_left,0.575,1,0,13,13,4,1,stimuli/blank.png,jene,a,SN07SR,2023-08-06_20h34.57.337,openIAT,2023.1.3,MacIntel,55.55555556,
,,,,,,,0,0.447560976,-0.335365854,1,0,0,0.518,button_right,0.518,1,0,14,14,17,1,stimuli/blank.png,eigene,l,SN07SR,2023-08-06_20h34.57.337,openIAT,2023.1.3,MacIntel,55.55555556,
,,,,,,,0,0.453658537,-0.326829268,1,0,0,0.626,button_right,0.626,1,0,15,15,7,1,stimuli/blank.png,eigene,l,SN07SR,2023-08-06_20h34.57.337,openIAT,2023.1.3,MacIntel,55.55555556,
,,,,,,,0,0.448780488,-0.329268293,1,0,0,0.39,button_right,0.39,1,0,16,16,11,1,stimuli/blank.png,ich,l,SN07SR,2023-08-06_20h34.57.337,openIAT,2023.1.3,MacIntel,55.55555556,
,,,,,,,0,0.453658537,-0.329268293,1,0,0,0.559,button_right,0.559,1,0,17,17,13,1,stimuli/blank.png,mir,l,SN07SR,2023-08-06_20h34.57.337,openIAT,2023.1.3,MacIntel,55.55555556,
,,,,,,,0,0.453658537,-0.332926829,1,0,0,0.474,button_right,0.474,1,0,18,18,15,1,stimuli/blank.png,meine,l,SN07SR,2023-08-06_20h34.57.337,openIAT,2023.1.3,MacIntel,55.55555556,
,,,,,,,0,0.454878049,-0.334146341,1,0,0,0.567,button_right,0.567,1,0,19,19,19,1,stimuli/blank.png,selbst,l,SN07SR,2023-08-06_20h34.57.337,openIAT,2023.1.3,MacIntel,55.55555556,
,,,,,,,0,0.430487805,-0.357317073,1,0,0,0.884,button_right,0.884,1,0,0,0,1,1,stimuli/blank.png,ich,l,SN07SR,2023-08-06_20h34.57.337,openIAT,2023.1.3,MacIntel,55.55555556,
,,,,,,,0,-0.457317073,-0.331707317,1,0,0,0.641,button_left,0.641,1,0,1,1,2,1,stimuli/blank.png,ihr,a,SN07SR,2023-08-06_20h34.57.337,openIAT,2023.1.3,MacIntel,55.55555556,
,,,,,,,0,0.447560976,-0.334146341,1,0,0,1.067,button_right,1.067,1,0,2,2,19,1,stimuli/blank.png,lustlos,l,SN07SR,2023-08-06_20h34.57.337,openIAT,2023.1.3,MacIntel,55.55555556,
,,,,,,,0,0.453658537,-0.342682927,1,0,0,0.865,button_right,0.865,1,0,3,3,15,1,stimuli/blank.png,träge,l,SN07SR,2023-08-06_20h34.57.337,openIAT,2023.1.3,MacIntel,55.55555556,
,,,,,,,0,0.45,-0.342682927,1,0,0,0.614,button_right,0.614,1,0,4,4,3,1,stimuli/blank.png,mir,l,SN07SR,2023-08-06_20h34.57.337,openIAT,2023.1.3,MacIntel,55.55555556,
,,,,,,,0,-0.447560976,-0.340243902,1,0,0,0.802,button_left,0.802,1,0,5,5,10,1,stimuli/blank.png,aktiv,a,SN07SR,2023-08-06_20h34.57.337,openIAT,2023.1.3,MacIntel,55.55555556,
,,,,,,,0,-0.453658537,-0.331707317,1,0,0,0.641,button_left,0.641,1,0,6,6,14,1,stimuli/blank.png,gerecht,a,SN07SR,2023-08-06_20h34.57.337,openIAT,2023.1.3,MacIntel,55.55555556,
,,,,,,,0,0.453658537,-0.340243902,1,0,0,0.641,button_right,0.641,1,0,7,7,11,1,stimuli/blank.png,brutal,l,SN07SR,2023-08-06_20h34.57.337,openIAT,2023.1.3,MacIntel,55.55555556,
,,,,,,,0,-0.452439024,-0.329268293,1,0,0,0.8,button_left,0.8,1,0,8,8,0,1,stimuli/blank.png,andere,a,SN07SR,2023-08-06_20h34.57.337,openIAT,2023.1.3,MacIntel,55.55555556,
,,,,,,,0,-0.451219512,-0.330487805,1,0,0,0.616,button_left,0.616,0,0,9,9,13,1,stimuli/blank.png,verlogen,l,SN07SR,2023-08-06_20h34.57.337,openIAT,2023.1.3,MacIntel,55.55555556,
,,,,,,,0,0.445121951,-0.334146341,1,0,0,0.733,button_right,0.733,1,0,10,10,17,1,stimuli/blank.png,eitel,l,SN07SR,2023-08-06_20h34.57.337,openIAT,2023.1.3,MacIntel,55.55555556,
,,,,,,,0,-0.447560976,-0.336585366,1,0,0,0.932,button_left,0.932,1,0,11,11,4,1,stimuli/blank.png,jene,a,SN07SR,2023-08-06_20h34.57.337,openIAT,2023.1.3,MacIntel,55.55555556,
,,,,,,,0,0.45,-0.335365854,1,0,0,0.724,button_right,0.724,1,0,12,12,7,1,stimuli/blank.png,eigene,l,SN07SR,2023-08-06_20h34.57.337,openIAT,2023.1.3,MacIntel,55.55555556,
,,,,,,,0,-0.45,-0.33902439,1,0,0,0.825,button_left,0.825,1,0,13,13,12,1,stimuli/blank.png,fröhlich,a,SN07SR,2023-08-06_20h34.57.337,openIAT,2023.1.3,MacIntel,55.55555556,
,,,,,,,0,0.453658537,-0.342682927,1,0,0,0.875,button_right,0.875,1,0,14,14,9,1,stimuli/blank.png,selbst,l,SN07SR,2023-08-06_20h34.57.337,openIAT,2023.1.3,MacIntel,55.55555556,
,,,,,,,0,-0.453658537,-0.32804878,1,0,0,1.133,button_left,1.133,1,0,15,15,16,1,stimuli/blank.png,begabt,a,SN07SR,2023-08-06_20h34.57.337,openIAT,2023.1.3,MacIntel,55.55555556,
,,,,,,,0,-0.454878049,-0.32804878,1,0,0,1.017,button_left,1.017,1,0,16,16,18,1,stimuli/blank.png,human,a,SN07SR,2023-08-06_20h34.57.337,openIAT,2023.1.3,MacIntel,55.55555556,
,,,,,,,0,0.453658537,-0.335365854,1,0,0,0.675,button_right,0.675,1,0,17,17,5,1,stimuli/blank.png,meine,l,SN07SR,2023-08-06_20h34.57.337,openIAT,2023.1.3,MacIntel,55.55555556,
,,,,,,,0,-0.453658537,-0.332926829,1,0,0,0.765,button_left,0.765,1,0,18,18,6,1,stimuli/blank.png,euch,a,SN07SR,2023-08-06_20h34.57.337,openIAT,2023.1.3,MacIntel,55.55555556,
,,,,,,,0,-0.459756098,-0.330487805,1,0,0,0.657,button_left,0.657,1,0,19,19,8,1,stimuli/blank.png,eure,a,SN07SR,2023-08-06_20h34.57.337,openIAT,2023.1.3,MacIntel,55.55555556,
,,,,,,,0,0.458536585,-0.353658537,1,0,0,1.066,button_right,1.066,1,0,0,0,9,1,stimuli/blank.png,selbst,l,SN07SR,2023-08-06_20h34.57.337,openIAT,2023.1.3,MacIntel,55.55555556,
,,,,,,,0,-0.467073171,-0.319512195,1,0,0,0.675,button_left,0.675,1,0,1,1,28,1,stimuli/blank.png,eure,a,SN07SR,2023-08-06_20h34.57.337,openIAT,2023.1.3,MacIntel,55.55555556,
,,,,,,,0,0.464634146,-0.340243902,1,0,0,0.633,button_right,0.633,1,0,2,2,7,1,stimuli/blank.png,eigene,l,SN07SR,2023-08-06_20h34.57.337,openIAT,2023.1.3,MacIntel,55.55555556,
,,,,,,,0,0.462195122,-0.337804878,1,0,0,0.615,button_right,0.615,1,0,3,3,23,1,stimuli/blank.png,mir,l,SN07SR,2023-08-06_20h34.57.337,openIAT,2023.1.3,MacIntel,55.55555556,
,,,,,,,0,-0.454878049,-0.330487805,1,0,0,0.565,button_left,0.565,1,0,4,4,24,1,stimuli/blank.png,jene,a,SN07SR,2023-08-06_20h34.57.337,openIAT,2023.1.3,MacIntel,55.55555556,
,,,,,,,0,0.463414634,-0.340243902,1,0,0,0.782,button_right,0.782,0,0,5,5,36,1,stimuli/blank.png,begabt,a,SN07SR,2023-08-06_20h34.57.337,openIAT,2023.1.3,MacIntel,55.55555556,
,,,,,,,0,0.45,-0.337804878,1,0,0,0.807,button_right,0.807,1,0,6,6,29,1,stimuli/blank.png,selbst,l,SN07SR,2023-08-06_20h34.57.337,openIAT,2023.1.3,MacIntel,55.55555556,
,,,,,,,0,-0.458536585,-0.323170732,1,0,0,0.724,button_left,0.724,0,0,7,7,19,1,stimuli/blank.png,lustlos,l,SN07SR,2023-08-06_20h34.57.337,openIAT,2023.1.3,MacIntel,55.55555556,
,,,,,,,0,0.45,-0.342682927,1,0,0,0.771,button_right,0.771,1,0,8,8,11,1,stimuli/blank.png,brutal,l,SN07SR,2023-08-06_20h34.57.337,openIAT,2023.1.3,MacIntel,55.55555556,
,,,,,,,0,-0.457317073,-0.329268293,1,0,0,0.8,button_left,0.8,1,0,9,9,22,1,stimuli/blank.png,ihr,a,SN07SR,2023-08-06_20h34.57.337,openIAT,2023.1.3,MacIntel,55.55555556,
,,,,,,,0,0.454878049,-0.337804878,1,0,0,1.216,button_right,1.216,1,0,10,10,15,1,stimuli/blank.png,träge,l,SN07SR,2023-08-06_20h34.57.337,openIAT,2023.1.3,MacIntel,55.55555556,
,,,,,,,0,-0.456097561,-0.336585366,1,0,0,1.467,button_left,1.467,1,0,11,11,34,1,stimuli/blank.png,gerecht,a,SN07SR,2023-08-06_20h34.57.337,openIAT,2023.1.3,MacIntel,55.55555556,
,,,,,,,0,-0.453658537,-0.331707317,1,0,0,0.974,button_left,0.974,1,0,12,12,4,1,stimuli/blank.png,jene,a,SN07SR,2023-08-06_20h34.57.337,openIAT,2023.1.3,MacIntel,55.55555556,
,,,,,,,0,0.467073171,-0.335365854,1,0,0,0.816,button_right,0.816,1,0,13,13,31,1,stimuli/blank.png,brutal,l,SN07SR,2023-08-06_20h34.57.337,openIAT,2023.1.3,MacIntel,55.55555556,
,,,,,,,0,0.462195122,-0.340243902,1,0,0,0.736,button_right,0.736,1,0,14,14,35,1,stimuli/blank.png,träge,l,SN07SR,2023-08-06_20h34.57.337,openIAT,2023.1.3,MacIntel,55.55555556,
,,,,,,,0,-0.453658537,-0.340243902,1,0,0,0.749,button_left,0.749,1,0,15,15,38,1,stimuli/blank.png,human,a,SN07SR,2023-08-06_20h34.57.337,openIAT,2023.1.3,MacIntel,55.55555556,
,,,,,,,0,0.46097561,-0.336585366,1,0,0,0.791,button_right,0.791,1,0,16,16,17,1,stimuli/blank.png,eitel,l,SN07SR,2023-08-06_20h34.57.337,openIAT,2023.1.3,MacIntel,55.55555556,
,,,,,,,0,-0.459756098,-0.326829268,1,0,0,0.816,button_left,0.816,1,0,17,17,32,1,stimuli/blank.png,fröhlich,a,SN07SR,2023-08-06_20h34.57.337,openIAT,2023.1.3,MacIntel,55.55555556,
,,,,,,,0,0.462195122,-0.331707317,1,0,0,1.117,button_right,1.117,1,0,18,18,27,1,stimuli/blank.png,eigene,l,SN07SR,2023-08-06_20h34.57.337,openIAT,2023.1.3,MacIntel,55.55555556,
,,,,,,,0,0.459756098,-0.335365854,1,0,0,0.675,button_right,0.675,1,0,19,19,5,1,stimuli/blank.png,meine,l,SN07SR,2023-08-06_20h34.57.337,openIAT,2023.1.3,MacIntel,55.55555556,
,,,,,,,0,-0.46097561,-0.323170732,1,0,0,0.599,button_left,0.599,1,0,20,20,0,1,stimuli/blank.png,andere,a,SN07SR,2023-08-06_20h34.57.337,openIAT,2023.1.3,MacIntel,55.55555556,
,,,,,,,0,-0.46097561,-0.330487805,1,0,0,0.691,button_left,0.691,1,0,21,21,8,1,stimuli/blank.png,eure,a,SN07SR,2023-08-06_20h34.57.337,openIAT,2023.1.3,MacIntel,55.55555556,
,,,,,,,0,-0.462195122,-0.32804878,1,0,0,0.641,button_left,0.641,1,0,22,22,20,1,stimuli/blank.png,andere,a,SN07SR,2023-08-06_20h34.57.337,openIAT,2023.1.3,MacIntel,55.55555556,
,,,,,,,0,0.465853659,-0.336585366,1,0,0,0.549,button_right,0.549,1,0,23,23,21,1,stimuli/blank.png,ich,l,SN07SR,2023-08-06_20h34.57.337,openIAT,2023.1.3,MacIntel,55.55555556,
,,,,,,,0,-0.459756098,-0.334146341,1,0,0,0.657,button_left,0.657,1,0,24,24,16,1,stimuli/blank.png,begabt,a,SN07SR,2023-08-06_20h34.57.337,openIAT,2023.1.3,MacIntel,55.55555556,
,,,,,,,0,0.462195122,-0.340243902,1,0,0,0.591,button_right,0.591,1,0,25,25,1,1,stimuli/blank.png,ich,l,SN07SR,2023-08-06_20h34.57.337,openIAT,2023.1.3,MacIntel,55.55555556,
,,,,,,,0,0.464634146,-0.337804878,1,0,0,0.8,button_right,0.8,1,0,26,26,3,1,stimuli/blank.png,mir,l,SN07SR,2023-08-06_20h34.57.337,openIAT,2023.1.3,MacIntel,55.55555556,
,,,,,,,0,0.46097561,-0.336585366,1,0,0,0.582,button_right,0.582,1,0,27,27,25,1,stimuli/blank.png,meine,l,SN07SR,2023-08-06_20h34.57.337,openIAT,2023.1.3,MacIntel,55.55555556,
,,,,,,,0,-0.468292683,-0.315853659,1,0,0,0.607,button_left,0.607,1,0,28,28,18,1,stimuli/blank.png,human,a,SN07SR,2023-08-06_20h34.57.337,openIAT,2023.1.3,MacIntel,55.55555556,
,,,,,,,0,0.464634146,-0.32804878,1,0,0,0.783,button_right,0.783,0,0,29,29,26,1,stimuli/blank.png,euch,a,SN07SR,2023-08-06_20h34.57.337,openIAT,2023.1.3,MacIntel,55.55555556,
,,,,,,,0,0.465853659,-0.296341463,1,0,0,0.873,button_right,0.873,1,0,30,30,13,1,stimuli/blank.png,verlogen,l,SN07SR,2023-08-06_20h34.57.337,openIAT,2023.1.3,MacIntel,55.55555556,
,,,,,,,0,-0.459756098,-0.334146341,1,0,0,0.731,button_left,0.731,1,0,31,31,12,1,stimuli/blank.png,fröhlich,a,SN07SR,2023-08-06_20h34.57.337,openIAT,2023.1.3,MacIntel,55.55555556,
,,,,,,,0,0.462195122,-0.319512195,1,0,0,0.74,button_right,0.74,1,0,32,32,37,1,stimuli/blank.png,eitel,l,SN07SR,2023-08-06_20h34.57.337,openIAT,2023.1.3,MacIntel,55.55555556,
,,,,,,,0,-0.453658537,-0.325609756,1,0,0,0.791,button_left,0.791,1,0,33,33,10,1,stimuli/blank.png,aktiv,a,SN07SR,2023-08-06_20h34.57.337,openIAT,2023.1.3,MacIntel,55.55555556,
,,,,,,,0,0.453658537,-0.325609756,1,0,0,0.782,button_right,0.782,1,0,34,34,39,1,stimuli/blank.png,lustlos,l,SN07SR,2023-08-06_20h34.57.337,openIAT,2023.1.3,MacIntel,55.55555556,
,,,,,,,0,-0.447560976,-0.325609756,1,0,0,0.642,button_left,0.642,1,0,35,35,30,1,stimuli/blank.png,aktiv,a,SN07SR,2023-08-06_20h34.57.337,openIAT,2023.1.3,MacIntel,55.55555556,
,,,,,,,0,0.465853659,-0.308536585,1,0,0,1.007,button_right,1.007,1,0,36,36,33,1,stimuli/blank.png,verlogen,l,SN07SR,2023-08-06_20h34.57.337,openIAT,2023.1.3,MacIntel,55.55555556,
,,,,,,,0,-0.464634146,-0.308536585,1,0,0,0.63,button_left,0.63,1,0,37,37,2,1,stimuli/blank.png,ihr,a,SN07SR,2023-08-06_20h34.57.337,openIAT,2023.1.3,MacIntel,55.55555556,
,,,,,,,0,-0.462195122,-0.319512195,1,0,0,0.792,button_left,0.792,1,0,38,38,6,1,stimuli/blank.png,euch,a,SN07SR,2023-08-06_20h34.57.337,openIAT,2023.1.3,MacIntel,55.55555556,
,,,,,,,0,0.456097561,-0.319512195,1,0,0,0.783,button_right,0.783,0,0,39,39,14,1,stimuli/blank.png,gerecht,a,SN07SR,2023-08-06_20h34.57.337,openIAT,2023.1.3,MacIntel,55.55555556,
,,,,,,,,,,,,,,,,,,,,,,,,,SN07SR,2023-08-06_20h34.57.337,openIAT,2023.1.3,MacIntel,55.55555556,
