instr_done_touch.x,instr_done_touch.y,instr_done_touch.leftButton,instr_done_touch.midButton,instr_done_touch.rightButton,instr_done_touch.clicked_name,key_resp.keys,key_resp.corr,key_resp.rt,key_resp.duration,touch_resp.x,touch_resp.y,touch_resp.leftButton,touch_resp.midButton,touch_resp.rightButton,touch_resp.time,touch_resp.clicked_name,rt,corr,trials.thisRepN,trials.thisTrialN,trials.thisN,trials.thisIndex,trials.ran,stimImage,stimWord,CorrAns,participant,date,expName,psychopyVersion,OS,frameRate,return_tic
0.04,-0.374444444,1,0,0,instr_done_button,l,1,0.956,,,,,,,,,0.956,1,0,0,0,5,1,stimuli/blank.png,träge,l,SS01OI,2023-08-19_10h11.06.997,openIAT,2023.1.3,MacIntel,58.82352941,
,,,,,,a,1,0.729,,,,,,,,,0.729,1,0,1,1,0,1,stimuli/blank.png,aktiv,a,SS01OI,2023-08-19_10h11.06.997,openIAT,2023.1.3,MacIntel,58.82352941,
,,,,,,a,1,1.07,,,,,,,,,1.07,1,0,2,2,18,1,stimuli/blank.png,human,a,SS01OI,2023-08-19_10h11.06.997,openIAT,2023.1.3,MacIntel,58.82352941,
,,,,,,l,1,0.679,,,,,,,,,0.679,1,0,3,3,15,1,stimuli/blank.png,träge,l,SS01OI,2023-08-19_10h11.06.997,openIAT,2023.1.3,MacIntel,58.82352941,
,,,,,,a,0,0.748,,,,,,,,,0.748,0,0,4,4,17,1,stimuli/blank.png,eitel,l,SS01OI,2023-08-19_10h11.06.997,openIAT,2023.1.3,MacIntel,58.82352941,
,,,,,,a,1,1.172,,,,,,,,,1.172,1,0,5,5,6,1,stimuli/blank.png,begabt,a,SS01OI,2023-08-19_10h11.06.997,openIAT,2023.1.3,MacIntel,58.82352941,
,,,,,,a,1,0.737,,,,,,,,,0.737,1,0,6,6,4,1,stimuli/blank.png,gerecht,a,SS01OI,2023-08-19_10h11.06.997,openIAT,2023.1.3,MacIntel,58.82352941,
,,,,,,a,1,0.788,,,,,,,,,0.788,1,0,7,7,16,1,stimuli/blank.png,begabt,a,SS01OI,2023-08-19_10h11.06.997,openIAT,2023.1.3,MacIntel,58.82352941,
,,,,,,l,1,0.688,,,,,,,,,0.688,1,0,8,8,7,1,stimuli/blank.png,eitel,l,SS01OI,2023-08-19_10h11.06.997,openIAT,2023.1.3,MacIntel,58.82352941,
,,,,,,l,1,0.855,,,,,,,,,0.855,1,0,9,9,13,1,stimuli/blank.png,verlogen,l,SS01OI,2023-08-19_10h11.06.997,openIAT,2023.1.3,MacIntel,58.82352941,
,,,,,,l,1,0.516,,,,,,,,,0.516,1,0,10,10,3,1,stimuli/blank.png,verlogen,l,SS01OI,2023-08-19_10h11.06.997,openIAT,2023.1.3,MacIntel,58.82352941,
,,,,,,l,1,0.629,,,,,,,,,0.629,1,0,11,11,19,1,stimuli/blank.png,lustlos,l,SS01OI,2023-08-19_10h11.06.997,openIAT,2023.1.3,MacIntel,58.82352941,
,,,,,,a,1,0.735,,,,,,,,,0.735,1,0,12,12,14,1,stimuli/blank.png,gerecht,a,SS01OI,2023-08-19_10h11.06.997,openIAT,2023.1.3,MacIntel,58.82352941,
,,,,,,l,1,0.718,,,,,,,,,0.718,1,0,13,13,9,1,stimuli/blank.png,lustlos,l,SS01OI,2023-08-19_10h11.06.997,openIAT,2023.1.3,MacIntel,58.82352941,
,,,,,,l,1,0.74,,,,,,,,,0.74,1,0,14,14,11,1,stimuli/blank.png,brutal,l,SS01OI,2023-08-19_10h11.06.997,openIAT,2023.1.3,MacIntel,58.82352941,
,,,,,,a,1,0.616,,,,,,,,,0.616,1,0,15,15,8,1,stimuli/blank.png,human,a,SS01OI,2023-08-19_10h11.06.997,openIAT,2023.1.3,MacIntel,58.82352941,
,,,,,,a,1,0.732,,,,,,,,,0.732,1,0,16,16,12,1,stimuli/blank.png,fröhlich,a,SS01OI,2023-08-19_10h11.06.997,openIAT,2023.1.3,MacIntel,58.82352941,
,,,,,,a,1,0.757,,,,,,,,,0.757,1,0,17,17,2,1,stimuli/blank.png,fröhlich,a,SS01OI,2023-08-19_10h11.06.997,openIAT,2023.1.3,MacIntel,58.82352941,
,,,,,,l,1,0.716,,,,,,,,,0.716,1,0,18,18,1,1,stimuli/blank.png,brutal,l,SS01OI,2023-08-19_10h11.06.997,openIAT,2023.1.3,MacIntel,58.82352941,
,,,,,,a,1,0.7,,,,,,,,,0.7,1,0,19,19,10,1,stimuli/blank.png,aktiv,a,SS01OI,2023-08-19_10h11.06.997,openIAT,2023.1.3,MacIntel,58.82352941,
,,,,,,a,1,0.658,,,,,,,,,0.658,1,0,0,0,1,1,stimuli/blank.png,ich,a,SS01OI,2023-08-19_10h11.06.997,openIAT,2023.1.3,MacIntel,58.82352941,
,,,,,,l,1,0.729,,,,,,,,,0.729,1,0,1,1,6,1,stimuli/blank.png,euch,l,SS01OI,2023-08-19_10h11.06.997,openIAT,2023.1.3,MacIntel,58.82352941,
,,,,,,a,1,0.599,,,,,,,,,0.599,1,0,2,2,5,1,stimuli/blank.png,meine,a,SS01OI,2023-08-19_10h11.06.997,openIAT,2023.1.3,MacIntel,58.82352941,
,,,,,,l,1,0.656,,,,,,,,,0.656,1,0,3,3,14,1,stimuli/blank.png,jene,l,SS01OI,2023-08-19_10h11.06.997,openIAT,2023.1.3,MacIntel,58.82352941,
,,,,,,a,1,0.634,,,,,,,,,0.634,1,0,4,4,17,1,stimuli/blank.png,eigene,a,SS01OI,2023-08-19_10h11.06.997,openIAT,2023.1.3,MacIntel,58.82352941,
,,,,,,a,1,0.548,,,,,,,,,0.548,1,0,5,5,3,1,stimuli/blank.png,mir,a,SS01OI,2023-08-19_10h11.06.997,openIAT,2023.1.3,MacIntel,58.82352941,
,,,,,,a,1,0.581,,,,,,,,,0.581,1,0,6,6,15,1,stimuli/blank.png,meine,a,SS01OI,2023-08-19_10h11.06.997,openIAT,2023.1.3,MacIntel,58.82352941,
,,,,,,l,1,0.528,,,,,,,,,0.528,1,0,7,7,8,1,stimuli/blank.png,eure,l,SS01OI,2023-08-19_10h11.06.997,openIAT,2023.1.3,MacIntel,58.82352941,
,,,,,,l,1,0.475,,,,,,,,,0.475,1,0,8,8,18,1,stimuli/blank.png,eure,l,SS01OI,2023-08-19_10h11.06.997,openIAT,2023.1.3,MacIntel,58.82352941,
,,,,,,a,1,0.866,,,,,,,,,0.866,1,0,9,9,7,1,stimuli/blank.png,eigene,a,SS01OI,2023-08-19_10h11.06.997,openIAT,2023.1.3,MacIntel,58.82352941,
,,,,,,l,1,0.454,,,,,,,,,0.454,1,0,10,10,0,1,stimuli/blank.png,andere,l,SS01OI,2023-08-19_10h11.06.997,openIAT,2023.1.3,MacIntel,58.82352941,
,,,,,,l,1,0.526,,,,,,,,,0.526,1,0,11,11,10,1,stimuli/blank.png,andere,l,SS01OI,2023-08-19_10h11.06.997,openIAT,2023.1.3,MacIntel,58.82352941,
,,,,,,l,1,0.749,,,,,,,,,0.749,1,0,12,12,4,1,stimuli/blank.png,jene,l,SS01OI,2023-08-19_10h11.06.997,openIAT,2023.1.3,MacIntel,58.82352941,
,,,,,,l,1,0.506,,,,,,,,,0.506,1,0,13,13,16,1,stimuli/blank.png,euch,l,SS01OI,2023-08-19_10h11.06.997,openIAT,2023.1.3,MacIntel,58.82352941,
,,,,,,a,1,0.663,,,,,,,,,0.663,1,0,14,14,19,1,stimuli/blank.png,selbst,a,SS01OI,2023-08-19_10h11.06.997,openIAT,2023.1.3,MacIntel,58.82352941,
,,,,,,l,1,0.672,,,,,,,,,0.672,1,0,15,15,12,1,stimuli/blank.png,ihr,l,SS01OI,2023-08-19_10h11.06.997,openIAT,2023.1.3,MacIntel,58.82352941,
,,,,,,a,1,0.481,,,,,,,,,0.481,1,0,16,16,9,1,stimuli/blank.png,selbst,a,SS01OI,2023-08-19_10h11.06.997,openIAT,2023.1.3,MacIntel,58.82352941,
,,,,,,a,1,0.462,,,,,,,,,0.462,1,0,17,17,11,1,stimuli/blank.png,ich,a,SS01OI,2023-08-19_10h11.06.997,openIAT,2023.1.3,MacIntel,58.82352941,
,,,,,,l,1,0.588,,,,,,,,,0.588,1,0,18,18,2,1,stimuli/blank.png,ihr,l,SS01OI,2023-08-19_10h11.06.997,openIAT,2023.1.3,MacIntel,58.82352941,
,,,,,,a,1,0.548,,,,,,,,,0.548,1,0,19,19,13,1,stimuli/blank.png,mir,a,SS01OI,2023-08-19_10h11.06.997,openIAT,2023.1.3,MacIntel,58.82352941,
,,,,,,l,1,0.776,,,,,,,,,0.776,1,0,0,0,4,1,stimuli/blank.png,jene,l,SS01OI,2023-08-19_10h11.06.997,openIAT,2023.1.3,MacIntel,58.82352941,
,,,,,,l,1,0.755,,,,,,,,,0.755,1,0,1,1,17,1,stimuli/blank.png,eitel,l,SS01OI,2023-08-19_10h11.06.997,openIAT,2023.1.3,MacIntel,58.82352941,
,,,,,,a,1,0.771,,,,,,,,,0.771,1,0,2,2,5,1,stimuli/blank.png,meine,a,SS01OI,2023-08-19_10h11.06.997,openIAT,2023.1.3,MacIntel,58.82352941,
,,,,,,a,1,0.897,,,,,,,,,0.897,1,0,3,3,7,1,stimuli/blank.png,eigene,a,SS01OI,2023-08-19_10h11.06.997,openIAT,2023.1.3,MacIntel,58.82352941,
,,,,,,l,1,0.68,,,,,,,,,0.68,1,0,4,4,8,1,stimuli/blank.png,eure,l,SS01OI,2023-08-19_10h11.06.997,openIAT,2023.1.3,MacIntel,58.82352941,
,,,,,,l,1,0.654,,,,,,,,,0.654,1,0,5,5,11,1,stimuli/blank.png,brutal,l,SS01OI,2023-08-19_10h11.06.997,openIAT,2023.1.3,MacIntel,58.82352941,
,,,,,,l,1,0.871,,,,,,,,,0.871,1,0,6,6,0,1,stimuli/blank.png,andere,l,SS01OI,2023-08-19_10h11.06.997,openIAT,2023.1.3,MacIntel,58.82352941,
,,,,,,a,1,0.502,,,,,,,,,0.502,1,0,7,7,1,1,stimuli/blank.png,ich,a,SS01OI,2023-08-19_10h11.06.997,openIAT,2023.1.3,MacIntel,58.82352941,
,,,,,,a,1,0.749,,,,,,,,,0.749,1,0,8,8,14,1,stimuli/blank.png,gerecht,a,SS01OI,2023-08-19_10h11.06.997,openIAT,2023.1.3,MacIntel,58.82352941,
,,,,,,a,1,0.547,,,,,,,,,0.547,1,0,9,9,10,1,stimuli/blank.png,aktiv,a,SS01OI,2023-08-19_10h11.06.997,openIAT,2023.1.3,MacIntel,58.82352941,
,,,,,,l,1,0.7,,,,,,,,,0.7,1,0,10,10,6,1,stimuli/blank.png,euch,l,SS01OI,2023-08-19_10h11.06.997,openIAT,2023.1.3,MacIntel,58.82352941,
,,,,,,a,1,0.632,,,,,,,,,0.632,1,0,11,11,18,1,stimuli/blank.png,human,a,SS01OI,2023-08-19_10h11.06.997,openIAT,2023.1.3,MacIntel,58.82352941,
,,,,,,l,1,0.77,,,,,,,,,0.77,1,0,12,12,19,1,stimuli/blank.png,lustlos,l,SS01OI,2023-08-19_10h11.06.997,openIAT,2023.1.3,MacIntel,58.82352941,
,,,,,,a,1,0.621,,,,,,,,,0.621,1,0,13,13,16,1,stimuli/blank.png,begabt,a,SS01OI,2023-08-19_10h11.06.997,openIAT,2023.1.3,MacIntel,58.82352941,
,,,,,,l,1,0.731,,,,,,,,,0.731,1,0,14,14,15,1,stimuli/blank.png,träge,l,SS01OI,2023-08-19_10h11.06.997,openIAT,2023.1.3,MacIntel,58.82352941,
,,,,,,a,1,0.585,,,,,,,,,0.585,1,0,15,15,3,1,stimuli/blank.png,mir,a,SS01OI,2023-08-19_10h11.06.997,openIAT,2023.1.3,MacIntel,58.82352941,
,,,,,,l,1,0.564,,,,,,,,,0.564,1,0,16,16,13,1,stimuli/blank.png,verlogen,l,SS01OI,2023-08-19_10h11.06.997,openIAT,2023.1.3,MacIntel,58.82352941,
,,,,,,l,1,0.888,,,,,,,,,0.888,1,0,17,17,2,1,stimuli/blank.png,ihr,l,SS01OI,2023-08-19_10h11.06.997,openIAT,2023.1.3,MacIntel,58.82352941,
,,,,,,a,1,0.663,,,,,,,,,0.663,1,0,18,18,9,1,stimuli/blank.png,selbst,a,SS01OI,2023-08-19_10h11.06.997,openIAT,2023.1.3,MacIntel,58.82352941,
,,,,,,a,1,0.464,,,,,,,,,0.464,1,0,19,19,12,1,stimuli/blank.png,fröhlich,a,SS01OI,2023-08-19_10h11.06.997,openIAT,2023.1.3,MacIntel,58.82352941,
,,,,,,a,1,0.591,,,,,,,,,0.591,1,0,0,0,5,1,stimuli/blank.png,meine,a,SS01OI,2023-08-19_10h11.06.997,openIAT,2023.1.3,MacIntel,58.82352941,
,,,,,,l,1,0.754,,,,,,,,,0.754,1,0,1,1,8,1,stimuli/blank.png,eure,l,SS01OI,2023-08-19_10h11.06.997,openIAT,2023.1.3,MacIntel,58.82352941,
,,,,,,a,1,0.733,,,,,,,,,0.733,1,0,2,2,25,1,stimuli/blank.png,meine,a,SS01OI,2023-08-19_10h11.06.997,openIAT,2023.1.3,MacIntel,58.82352941,
,,,,,,a,1,0.632,,,,,,,,,0.632,1,0,3,3,14,1,stimuli/blank.png,gerecht,a,SS01OI,2023-08-19_10h11.06.997,openIAT,2023.1.3,MacIntel,58.82352941,
,,,,,,l,1,1.14,,,,,,,,,1.14,1,0,4,4,19,1,stimuli/blank.png,lustlos,l,SS01OI,2023-08-19_10h11.06.997,openIAT,2023.1.3,MacIntel,58.82352941,
,,,,,,a,1,0.591,,,,,,,,,0.591,1,0,5,5,12,1,stimuli/blank.png,fröhlich,a,SS01OI,2023-08-19_10h11.06.997,openIAT,2023.1.3,MacIntel,58.82352941,
,,,,,,a,1,0.629,,,,,,,,,0.629,1,0,6,6,30,1,stimuli/blank.png,aktiv,a,SS01OI,2023-08-19_10h11.06.997,openIAT,2023.1.3,MacIntel,58.82352941,
,,,,,,l,1,0.6,,,,,,,,,0.6,1,0,7,7,20,1,stimuli/blank.png,andere,l,SS01OI,2023-08-19_10h11.06.997,openIAT,2023.1.3,MacIntel,58.82352941,
,,,,,,a,0,0.47,,,,,,,,,0.47,0,0,8,8,2,1,stimuli/blank.png,ihr,l,SS01OI,2023-08-19_10h11.06.997,openIAT,2023.1.3,MacIntel,58.82352941,
,,,,,,a,1,1.066,,,,,,,,,1.066,1,0,9,9,7,1,stimuli/blank.png,eigene,a,SS01OI,2023-08-19_10h11.06.997,openIAT,2023.1.3,MacIntel,58.82352941,
,,,,,,a,1,0.831,,,,,,,,,0.831,1,0,10,10,34,1,stimuli/blank.png,gerecht,a,SS01OI,2023-08-19_10h11.06.997,openIAT,2023.1.3,MacIntel,58.82352941,
,,,,,,a,1,0.749,,,,,,,,,0.749,1,0,11,11,21,1,stimuli/blank.png,ich,a,SS01OI,2023-08-19_10h11.06.997,openIAT,2023.1.3,MacIntel,58.82352941,
,,,,,,l,1,0.581,,,,,,,,,0.581,1,0,12,12,35,1,stimuli/blank.png,träge,l,SS01OI,2023-08-19_10h11.06.997,openIAT,2023.1.3,MacIntel,58.82352941,
,,,,,,l,1,0.695,,,,,,,,,0.695,1,0,13,13,6,1,stimuli/blank.png,euch,l,SS01OI,2023-08-19_10h11.06.997,openIAT,2023.1.3,MacIntel,58.82352941,
,,,,,,a,1,0.587,,,,,,,,,0.587,1,0,14,14,18,1,stimuli/blank.png,human,a,SS01OI,2023-08-19_10h11.06.997,openIAT,2023.1.3,MacIntel,58.82352941,
,,,,,,a,1,0.904,,,,,,,,,0.904,1,0,15,15,16,1,stimuli/blank.png,begabt,a,SS01OI,2023-08-19_10h11.06.997,openIAT,2023.1.3,MacIntel,58.82352941,
,,,,,,l,1,0.774,,,,,,,,,0.774,1,0,16,16,4,1,stimuli/blank.png,jene,l,SS01OI,2023-08-19_10h11.06.997,openIAT,2023.1.3,MacIntel,58.82352941,
,,,,,,a,1,0.64,,,,,,,,,0.64,1,0,17,17,38,1,stimuli/blank.png,human,a,SS01OI,2023-08-19_10h11.06.997,openIAT,2023.1.3,MacIntel,58.82352941,
,,,,,,l,1,0.63,,,,,,,,,0.63,1,0,18,18,0,1,stimuli/blank.png,andere,l,SS01OI,2023-08-19_10h11.06.997,openIAT,2023.1.3,MacIntel,58.82352941,
,,,,,,l,1,0.547,,,,,,,,,0.547,1,0,19,19,33,1,stimuli/blank.png,verlogen,l,SS01OI,2023-08-19_10h11.06.997,openIAT,2023.1.3,MacIntel,58.82352941,
,,,,,,l,1,0.715,,,,,,,,,0.715,1,0,20,20,26,1,stimuli/blank.png,euch,l,SS01OI,2023-08-19_10h11.06.997,openIAT,2023.1.3,MacIntel,58.82352941,
,,,,,,a,1,0.505,,,,,,,,,0.505,1,0,21,21,23,1,stimuli/blank.png,mir,a,SS01OI,2023-08-19_10h11.06.997,openIAT,2023.1.3,MacIntel,58.82352941,
,,,,,,l,1,0.815,,,,,,,,,0.815,1,0,22,22,31,1,stimuli/blank.png,brutal,l,SS01OI,2023-08-19_10h11.06.997,openIAT,2023.1.3,MacIntel,58.82352941,
,,,,,,l,1,0.77,,,,,,,,,0.77,1,0,23,23,24,1,stimuli/blank.png,jene,l,SS01OI,2023-08-19_10h11.06.997,openIAT,2023.1.3,MacIntel,58.82352941,
,,,,,,a,1,0.538,,,,,,,,,0.538,1,0,24,24,32,1,stimuli/blank.png,fröhlich,a,SS01OI,2023-08-19_10h11.06.997,openIAT,2023.1.3,MacIntel,58.82352941,
,,,,,,l,1,0.546,,,,,,,,,0.546,1,0,25,25,17,1,stimuli/blank.png,eitel,l,SS01OI,2023-08-19_10h11.06.997,openIAT,2023.1.3,MacIntel,58.82352941,
,,,,,,a,1,0.571,,,,,,,,,0.571,1,0,26,26,29,1,stimuli/blank.png,selbst,a,SS01OI,2023-08-19_10h11.06.997,openIAT,2023.1.3,MacIntel,58.82352941,
,,,,,,a,1,0.566,,,,,,,,,0.566,1,0,27,27,1,1,stimuli/blank.png,ich,a,SS01OI,2023-08-19_10h11.06.997,openIAT,2023.1.3,MacIntel,58.82352941,
,,,,,,l,1,0.603,,,,,,,,,0.603,1,0,28,28,15,1,stimuli/blank.png,träge,l,SS01OI,2023-08-19_10h11.06.997,openIAT,2023.1.3,MacIntel,58.82352941,
,,,,,,l,1,0.619,,,,,,,,,0.619,1,0,29,29,11,1,stimuli/blank.png,brutal,l,SS01OI,2023-08-19_10h11.06.997,openIAT,2023.1.3,MacIntel,58.82352941,
,,,,,,l,1,0.573,,,,,,,,,0.573,1,0,30,30,37,1,stimuli/blank.png,eitel,l,SS01OI,2023-08-19_10h11.06.997,openIAT,2023.1.3,MacIntel,58.82352941,
,,,,,,l,1,0.758,,,,,,,,,0.758,1,0,31,31,39,1,stimuli/blank.png,lustlos,l,SS01OI,2023-08-19_10h11.06.997,openIAT,2023.1.3,MacIntel,58.82352941,
,,,,,,a,1,0.586,,,,,,,,,0.586,1,0,32,32,36,1,stimuli/blank.png,begabt,a,SS01OI,2023-08-19_10h11.06.997,openIAT,2023.1.3,MacIntel,58.82352941,
,,,,,,l,1,0.814,,,,,,,,,0.814,1,0,33,33,13,1,stimuli/blank.png,verlogen,l,SS01OI,2023-08-19_10h11.06.997,openIAT,2023.1.3,MacIntel,58.82352941,
,,,,,,l,1,0.602,,,,,,,,,0.602,1,0,34,34,22,1,stimuli/blank.png,ihr,l,SS01OI,2023-08-19_10h11.06.997,openIAT,2023.1.3,MacIntel,58.82352941,
,,,,,,a,1,0.63,,,,,,,,,0.63,1,0,35,35,9,1,stimuli/blank.png,selbst,a,SS01OI,2023-08-19_10h11.06.997,openIAT,2023.1.3,MacIntel,58.82352941,
,,,,,,a,1,0.697,,,,,,,,,0.697,1,0,36,36,10,1,stimuli/blank.png,aktiv,a,SS01OI,2023-08-19_10h11.06.997,openIAT,2023.1.3,MacIntel,58.82352941,
,,,,,,l,1,0.556,,,,,,,,,0.556,1,0,37,37,28,1,stimuli/blank.png,eure,l,SS01OI,2023-08-19_10h11.06.997,openIAT,2023.1.3,MacIntel,58.82352941,
,,,,,,a,1,0.666,,,,,,,,,0.666,1,0,38,38,27,1,stimuli/blank.png,eigene,a,SS01OI,2023-08-19_10h11.06.997,openIAT,2023.1.3,MacIntel,58.82352941,
,,,,,,a,1,0.619,,,,,,,,,0.619,1,0,39,39,3,1,stimuli/blank.png,mir,a,SS01OI,2023-08-19_10h11.06.997,openIAT,2023.1.3,MacIntel,58.82352941,
,,,,,,l,1,0.707,,,,,,,,,0.707,1,0,0,0,5,1,stimuli/blank.png,meine,l,SS01OI,2023-08-19_10h11.06.997,openIAT,2023.1.3,MacIntel,58.82352941,
,,,,,,a,1,0.556,,,,,,,,,0.556,1,0,1,1,8,1,stimuli/blank.png,eure,a,SS01OI,2023-08-19_10h11.06.997,openIAT,2023.1.3,MacIntel,58.82352941,
,,,,,,l,1,0.752,,,,,,,,,0.752,1,0,2,2,17,1,stimuli/blank.png,eigene,l,SS01OI,2023-08-19_10h11.06.997,openIAT,2023.1.3,MacIntel,58.82352941,
,,,,,,l,1,0.698,,,,,,,,,0.698,1,0,3,3,3,1,stimuli/blank.png,mir,l,SS01OI,2023-08-19_10h11.06.997,openIAT,2023.1.3,MacIntel,58.82352941,
,,,,,,l,1,0.724,,,,,,,,,0.724,1,0,4,4,15,1,stimuli/blank.png,meine,l,SS01OI,2023-08-19_10h11.06.997,openIAT,2023.1.3,MacIntel,58.82352941,
,,,,,,l,1,0.673,,,,,,,,,0.673,1,0,5,5,7,1,stimuli/blank.png,eigene,l,SS01OI,2023-08-19_10h11.06.997,openIAT,2023.1.3,MacIntel,58.82352941,
,,,,,,l,1,0.65,,,,,,,,,0.65,1,0,6,6,19,1,stimuli/blank.png,selbst,l,SS01OI,2023-08-19_10h11.06.997,openIAT,2023.1.3,MacIntel,58.82352941,
,,,,,,a,1,0.583,,,,,,,,,0.583,1,0,7,7,12,1,stimuli/blank.png,ihr,a,SS01OI,2023-08-19_10h11.06.997,openIAT,2023.1.3,MacIntel,58.82352941,
,,,,,,a,1,0.606,,,,,,,,,0.606,1,0,8,8,2,1,stimuli/blank.png,ihr,a,SS01OI,2023-08-19_10h11.06.997,openIAT,2023.1.3,MacIntel,58.82352941,
,,,,,,l,1,0.612,,,,,,,,,0.612,1,0,9,9,9,1,stimuli/blank.png,selbst,l,SS01OI,2023-08-19_10h11.06.997,openIAT,2023.1.3,MacIntel,58.82352941,
,,,,,,l,1,0.573,,,,,,,,,0.573,1,0,10,10,11,1,stimuli/blank.png,ich,l,SS01OI,2023-08-19_10h11.06.997,openIAT,2023.1.3,MacIntel,58.82352941,
,,,,,,l,1,0.469,,,,,,,,,0.469,1,0,11,11,1,1,stimuli/blank.png,ich,l,SS01OI,2023-08-19_10h11.06.997,openIAT,2023.1.3,MacIntel,58.82352941,
,,,,,,a,1,0.734,,,,,,,,,0.734,1,0,12,12,16,1,stimuli/blank.png,euch,a,SS01OI,2023-08-19_10h11.06.997,openIAT,2023.1.3,MacIntel,58.82352941,
,,,,,,l,1,0.469,,,,,,,,,0.469,1,0,13,13,13,1,stimuli/blank.png,mir,l,SS01OI,2023-08-19_10h11.06.997,openIAT,2023.1.3,MacIntel,58.82352941,
,,,,,,a,1,0.59,,,,,,,,,0.59,1,0,14,14,14,1,stimuli/blank.png,jene,a,SS01OI,2023-08-19_10h11.06.997,openIAT,2023.1.3,MacIntel,58.82352941,
,,,,,,a,1,0.515,,,,,,,,,0.515,1,0,15,15,4,1,stimuli/blank.png,jene,a,SS01OI,2023-08-19_10h11.06.997,openIAT,2023.1.3,MacIntel,58.82352941,
,,,,,,a,1,0.748,,,,,,,,,0.748,1,0,16,16,6,1,stimuli/blank.png,euch,a,SS01OI,2023-08-19_10h11.06.997,openIAT,2023.1.3,MacIntel,58.82352941,
,,,,,,a,1,0.503,,,,,,,,,0.503,1,0,17,17,18,1,stimuli/blank.png,eure,a,SS01OI,2023-08-19_10h11.06.997,openIAT,2023.1.3,MacIntel,58.82352941,
,,,,,,a,1,0.52,,,,,,,,,0.52,1,0,18,18,10,1,stimuli/blank.png,andere,a,SS01OI,2023-08-19_10h11.06.997,openIAT,2023.1.3,MacIntel,58.82352941,
,,,,,,a,1,0.5,,,,,,,,,0.5,1,0,19,19,0,1,stimuli/blank.png,andere,a,SS01OI,2023-08-19_10h11.06.997,openIAT,2023.1.3,MacIntel,58.82352941,
,,,,,,a,1,0.757,,,,,,,,,0.757,1,0,0,0,4,1,stimuli/blank.png,jene,a,SS01OI,2023-08-19_10h11.06.997,openIAT,2023.1.3,MacIntel,58.82352941,
,,,,,,l,1,0.796,,,,,,,,,0.796,1,0,1,1,5,1,stimuli/blank.png,meine,l,SS01OI,2023-08-19_10h11.06.997,openIAT,2023.1.3,MacIntel,58.82352941,
,,,,,,l,1,0.949,,,,,,,,,0.949,1,0,2,2,11,1,stimuli/blank.png,brutal,l,SS01OI,2023-08-19_10h11.06.997,openIAT,2023.1.3,MacIntel,58.82352941,
,,,,,,l,1,0.864,,,,,,,,,0.864,1,0,3,3,17,1,stimuli/blank.png,eitel,l,SS01OI,2023-08-19_10h11.06.997,openIAT,2023.1.3,MacIntel,58.82352941,
,,,,,,l,1,0.832,,,,,,,,,0.832,1,0,4,4,3,1,stimuli/blank.png,mir,l,SS01OI,2023-08-19_10h11.06.997,openIAT,2023.1.3,MacIntel,58.82352941,
,,,,,,l,1,0.922,,,,,,,,,0.922,1,0,5,5,13,1,stimuli/blank.png,verlogen,l,SS01OI,2023-08-19_10h11.06.997,openIAT,2023.1.3,MacIntel,58.82352941,
,,,,,,a,1,0.705,,,,,,,,,0.705,1,0,6,6,18,1,stimuli/blank.png,human,a,SS01OI,2023-08-19_10h11.06.997,openIAT,2023.1.3,MacIntel,58.82352941,
,,,,,,a,1,0.872,,,,,,,,,0.872,1,0,7,7,14,1,stimuli/blank.png,gerecht,a,SS01OI,2023-08-19_10h11.06.997,openIAT,2023.1.3,MacIntel,58.82352941,
,,,,,,a,1,0.604,,,,,,,,,0.604,1,0,8,8,12,1,stimuli/blank.png,fröhlich,a,SS01OI,2023-08-19_10h11.06.997,openIAT,2023.1.3,MacIntel,58.82352941,
,,,,,,l,1,0.679,,,,,,,,,0.679,1,0,9,9,9,1,stimuli/blank.png,selbst,l,SS01OI,2023-08-19_10h11.06.997,openIAT,2023.1.3,MacIntel,58.82352941,
,,,,,,l,1,0.713,,,,,,,,,0.713,1,0,10,10,7,1,stimuli/blank.png,eigene,l,SS01OI,2023-08-19_10h11.06.997,openIAT,2023.1.3,MacIntel,58.82352941,
,,,,,,l,1,0.868,,,,,,,,,0.868,1,0,11,11,15,1,stimuli/blank.png,träge,l,SS01OI,2023-08-19_10h11.06.997,openIAT,2023.1.3,MacIntel,58.82352941,
,,,,,,a,1,0.889,,,,,,,,,0.889,1,0,12,12,8,1,stimuli/blank.png,eure,a,SS01OI,2023-08-19_10h11.06.997,openIAT,2023.1.3,MacIntel,58.82352941,
,,,,,,a,1,0.697,,,,,,,,,0.697,1,0,13,13,6,1,stimuli/blank.png,euch,a,SS01OI,2023-08-19_10h11.06.997,openIAT,2023.1.3,MacIntel,58.82352941,
,,,,,,a,1,0.704,,,,,,,,,0.704,1,0,14,14,10,1,stimuli/blank.png,aktiv,a,SS01OI,2023-08-19_10h11.06.997,openIAT,2023.1.3,MacIntel,58.82352941,
,,,,,,a,1,0.653,,,,,,,,,0.653,1,0,15,15,16,1,stimuli/blank.png,begabt,a,SS01OI,2023-08-19_10h11.06.997,openIAT,2023.1.3,MacIntel,58.82352941,
,,,,,,a,1,0.686,,,,,,,,,0.686,1,0,16,16,2,1,stimuli/blank.png,ihr,a,SS01OI,2023-08-19_10h11.06.997,openIAT,2023.1.3,MacIntel,58.82352941,
,,,,,,a,0,0.62,,,,,,,,,0.62,0,0,17,17,19,1,stimuli/blank.png,lustlos,l,SS01OI,2023-08-19_10h11.06.997,openIAT,2023.1.3,MacIntel,58.82352941,
,,,,,,l,1,0.872,,,,,,,,,0.872,1,0,18,18,1,1,stimuli/blank.png,ich,l,SS01OI,2023-08-19_10h11.06.997,openIAT,2023.1.3,MacIntel,58.82352941,
,,,,,,a,1,0.965,,,,,,,,,0.965,1,0,19,19,0,1,stimuli/blank.png,andere,a,SS01OI,2023-08-19_10h11.06.997,openIAT,2023.1.3,MacIntel,58.82352941,
,,,,,,a,1,0.782,,,,,,,,,0.782,1,0,0,0,22,1,stimuli/blank.png,ihr,a,SS01OI,2023-08-19_10h11.06.997,openIAT,2023.1.3,MacIntel,58.82352941,
,,,,,,l,1,0.813,,,,,,,,,0.813,1,0,1,1,11,1,stimuli/blank.png,brutal,l,SS01OI,2023-08-19_10h11.06.997,openIAT,2023.1.3,MacIntel,58.82352941,
,,,,,,a,1,0.713,,,,,,,,,0.713,1,0,2,2,16,1,stimuli/blank.png,begabt,a,SS01OI,2023-08-19_10h11.06.997,openIAT,2023.1.3,MacIntel,58.82352941,
,,,,,,a,1,0.923,,,,,,,,,0.923,1,0,3,3,0,1,stimuli/blank.png,andere,a,SS01OI,2023-08-19_10h11.06.997,openIAT,2023.1.3,MacIntel,58.82352941,
,,,,,,a,1,0.832,,,,,,,,,0.832,1,0,4,4,26,1,stimuli/blank.png,euch,a,SS01OI,2023-08-19_10h11.06.997,openIAT,2023.1.3,MacIntel,58.82352941,
,,,,,,a,1,0.719,,,,,,,,,0.719,1,0,5,5,24,1,stimuli/blank.png,jene,a,SS01OI,2023-08-19_10h11.06.997,openIAT,2023.1.3,MacIntel,58.82352941,
,,,,,,l,1,0.58,,,,,,,,,0.58,1,0,6,6,3,1,stimuli/blank.png,mir,l,SS01OI,2023-08-19_10h11.06.997,openIAT,2023.1.3,MacIntel,58.82352941,
,,,,,,a,1,0.667,,,,,,,,,0.667,1,0,7,7,6,1,stimuli/blank.png,euch,a,SS01OI,2023-08-19_10h11.06.997,openIAT,2023.1.3,MacIntel,58.82352941,
,,,,,,l,1,0.962,,,,,,,,,0.962,1,0,8,8,7,1,stimuli/blank.png,eigene,l,SS01OI,2023-08-19_10h11.06.997,openIAT,2023.1.3,MacIntel,58.82352941,
,,,,,,a,0,1.021,,,,,,,,,1.021,0,0,9,9,19,1,stimuli/blank.png,lustlos,l,SS01OI,2023-08-19_10h11.06.997,openIAT,2023.1.3,MacIntel,58.82352941,
,,,,,,a,1,0.939,,,,,,,,,0.939,1,0,10,10,34,1,stimuli/blank.png,gerecht,a,SS01OI,2023-08-19_10h11.06.997,openIAT,2023.1.3,MacIntel,58.82352941,
,,,,,,l,1,0.756,,,,,,,,,0.756,1,0,11,11,17,1,stimuli/blank.png,eitel,l,SS01OI,2023-08-19_10h11.06.997,openIAT,2023.1.3,MacIntel,58.82352941,
,,,,,,a,1,1.029,,,,,,,,,1.029,1,0,12,12,12,1,stimuli/blank.png,fröhlich,a,SS01OI,2023-08-19_10h11.06.997,openIAT,2023.1.3,MacIntel,58.82352941,
,,,,,,l,1,1,,,,,,,,,1,1,0,13,13,25,1,stimuli/blank.png,meine,l,SS01OI,2023-08-19_10h11.06.997,openIAT,2023.1.3,MacIntel,58.82352941,
,,,,,,l,1,0.83,,,,,,,,,0.83,1,0,14,14,31,1,stimuli/blank.png,brutal,l,SS01OI,2023-08-19_10h11.06.997,openIAT,2023.1.3,MacIntel,58.82352941,
,,,,,,a,1,1.214,,,,,,,,,1.214,1,0,15,15,18,1,stimuli/blank.png,human,a,SS01OI,2023-08-19_10h11.06.997,openIAT,2023.1.3,MacIntel,58.82352941,
,,,,,,a,0,0.983,,,,,,,,,0.983,0,0,16,16,33,1,stimuli/blank.png,verlogen,l,SS01OI,2023-08-19_10h11.06.997,openIAT,2023.1.3,MacIntel,58.82352941,
,,,,,,a,1,1.255,,,,,,,,,1.255,1,0,17,17,32,1,stimuli/blank.png,fröhlich,a,SS01OI,2023-08-19_10h11.06.997,openIAT,2023.1.3,MacIntel,58.82352941,
,,,,,,l,1,1.219,,,,,,,,,1.219,1,0,18,18,29,1,stimuli/blank.png,selbst,l,SS01OI,2023-08-19_10h11.06.997,openIAT,2023.1.3,MacIntel,58.82352941,
,,,,,,l,1,0.986,,,,,,,,,0.986,1,0,19,19,13,1,stimuli/blank.png,verlogen,l,SS01OI,2023-08-19_10h11.06.997,openIAT,2023.1.3,MacIntel,58.82352941,
,,,,,,l,1,0.553,,,,,,,,,0.553,1,0,20,20,21,1,stimuli/blank.png,ich,l,SS01OI,2023-08-19_10h11.06.997,openIAT,2023.1.3,MacIntel,58.82352941,
,,,,,,l,1,0.913,,,,,,,,,0.913,1,0,21,21,15,1,stimuli/blank.png,träge,l,SS01OI,2023-08-19_10h11.06.997,openIAT,2023.1.3,MacIntel,58.82352941,
,,,,,,l,0,0.514,,,,,,,,,0.514,0,0,22,22,2,1,stimuli/blank.png,ihr,a,SS01OI,2023-08-19_10h11.06.997,openIAT,2023.1.3,MacIntel,58.82352941,
,,,,,,a,1,1.356,,,,,,,,,1.356,1,0,23,23,30,1,stimuli/blank.png,aktiv,a,SS01OI,2023-08-19_10h11.06.997,openIAT,2023.1.3,MacIntel,58.82352941,
,,,,,,l,1,0.715,,,,,,,,,0.715,1,0,24,24,5,1,stimuli/blank.png,meine,l,SS01OI,2023-08-19_10h11.06.997,openIAT,2023.1.3,MacIntel,58.82352941,
,,,,,,l,1,1.173,,,,,,,,,1.173,1,0,25,25,37,1,stimuli/blank.png,eitel,l,SS01OI,2023-08-19_10h11.06.997,openIAT,2023.1.3,MacIntel,58.82352941,
,,,,,,a,1,0.896,,,,,,,,,0.896,1,0,26,26,38,1,stimuli/blank.png,human,a,SS01OI,2023-08-19_10h11.06.997,openIAT,2023.1.3,MacIntel,58.82352941,
,,,,,,a,1,0.805,,,,,,,,,0.805,1,0,27,27,4,1,stimuli/blank.png,jene,a,SS01OI,2023-08-19_10h11.06.997,openIAT,2023.1.3,MacIntel,58.82352941,
,,,,,,l,1,0.62,,,,,,,,,0.62,1,0,28,28,1,1,stimuli/blank.png,ich,l,SS01OI,2023-08-19_10h11.06.997,openIAT,2023.1.3,MacIntel,58.82352941,
,,,,,,a,1,1.117,,,,,,,,,1.117,1,0,29,29,14,1,stimuli/blank.png,gerecht,a,SS01OI,2023-08-19_10h11.06.997,openIAT,2023.1.3,MacIntel,58.82352941,
,,,,,,a,1,0.823,,,,,,,,,0.823,1,0,30,30,20,1,stimuli/blank.png,andere,a,SS01OI,2023-08-19_10h11.06.997,openIAT,2023.1.3,MacIntel,58.82352941,
,,,,,,l,1,1.204,,,,,,,,,1.204,1,0,31,31,23,1,stimuli/blank.png,mir,l,SS01OI,2023-08-19_10h11.06.997,openIAT,2023.1.3,MacIntel,58.82352941,
,,,,,,a,1,0.674,,,,,,,,,0.674,1,0,32,32,8,1,stimuli/blank.png,eure,a,SS01OI,2023-08-19_10h11.06.997,openIAT,2023.1.3,MacIntel,58.82352941,
,,,,,,l,1,0.936,,,,,,,,,0.936,1,0,33,33,35,1,stimuli/blank.png,träge,l,SS01OI,2023-08-19_10h11.06.997,openIAT,2023.1.3,MacIntel,58.82352941,
,,,,,,l,1,0.714,,,,,,,,,0.714,1,0,34,34,39,1,stimuli/blank.png,lustlos,l,SS01OI,2023-08-19_10h11.06.997,openIAT,2023.1.3,MacIntel,58.82352941,
,,,,,,a,1,0.686,,,,,,,,,0.686,1,0,35,35,28,1,stimuli/blank.png,eure,a,SS01OI,2023-08-19_10h11.06.997,openIAT,2023.1.3,MacIntel,58.82352941,
,,,,,,a,1,1.314,,,,,,,,,1.314,1,0,36,36,36,1,stimuli/blank.png,begabt,a,SS01OI,2023-08-19_10h11.06.997,openIAT,2023.1.3,MacIntel,58.82352941,
,,,,,,l,1,0.804,,,,,,,,,0.804,1,0,37,37,9,1,stimuli/blank.png,selbst,l,SS01OI,2023-08-19_10h11.06.997,openIAT,2023.1.3,MacIntel,58.82352941,
,,,,,,l,1,0.815,,,,,,,,,0.815,1,0,38,38,27,1,stimuli/blank.png,eigene,l,SS01OI,2023-08-19_10h11.06.997,openIAT,2023.1.3,MacIntel,58.82352941,
,,,,,,a,1,1.105,,,,,,,,,1.105,1,0,39,39,10,1,stimuli/blank.png,aktiv,a,SS01OI,2023-08-19_10h11.06.997,openIAT,2023.1.3,MacIntel,58.82352941,
,,,,,,,,,,,,,,,,,,,,,,,,,,,SS01OI,2023-08-19_10h11.06.997,openIAT,2023.1.3,MacIntel,58.82352941,
