instr_done_touch.x,instr_done_touch.y,instr_done_touch.leftButton,instr_done_touch.midButton,instr_done_touch.rightButton,instr_done_touch.clicked_name,key_resp.keys,key_resp.corr,key_resp.rt,key_resp.duration,touch_resp.x,touch_resp.y,touch_resp.leftButton,touch_resp.midButton,touch_resp.rightButton,touch_resp.time,touch_resp.clicked_name,rt,corr,trials.thisRepN,trials.thisTrialN,trials.thisN,trials.thisIndex,trials.ran,stimImage,stimWord,CorrAns,participant,date,expName,psychopyVersion,OS,frameRate,return_tic
0.011111111,-0.412037065,1,0,0,instr_done_button,a,1,1.0573,,,,,,,,,1.0573,1,0,0,0,8,1,stimuli/blank.png,human,a,TN10HL!,2023-08-21_10h36.58.147,openIAT,2023.1.3,Win32,60.04563468,
,,,,,,a,1,1.0174,,,,,,,,,1.0174,1,0,1,1,18,1,stimuli/blank.png,human,a,TN10HL!,2023-08-21_10h36.58.147,openIAT,2023.1.3,Win32,60.04563468,
,,,,,,l,1,0.8829,,,,,,,,,0.8829,1,0,2,2,3,1,stimuli/blank.png,verlogen,l,TN10HL!,2023-08-21_10h36.58.147,openIAT,2023.1.3,Win32,60.04563468,
,,,,,,a,1,1.0107,,,,,,,,,1.0107,1,0,3,3,6,1,stimuli/blank.png,begabt,a,TN10HL!,2023-08-21_10h36.58.147,openIAT,2023.1.3,Win32,60.04563468,
,,,,,,l,1,1.2374,,,,,,,,,1.2374,1,0,4,4,19,1,stimuli/blank.png,lustlos,l,TN10HL!,2023-08-21_10h36.58.147,openIAT,2023.1.3,Win32,60.04563468,
,,,,,,l,1,0.7608,,,,,,,,,0.7608,1,0,5,5,5,1,stimuli/blank.png,träge,l,TN10HL!,2023-08-21_10h36.58.147,openIAT,2023.1.3,Win32,60.04563468,
,,,,,,l,1,0.646,,,,,,,,,0.646,1,0,6,6,13,1,stimuli/blank.png,verlogen,l,TN10HL!,2023-08-21_10h36.58.147,openIAT,2023.1.3,Win32,60.04563468,
,,,,,,l,1,0.813,,,,,,,,,0.813,1,0,7,7,1,1,stimuli/blank.png,brutal,l,TN10HL!,2023-08-21_10h36.58.147,openIAT,2023.1.3,Win32,60.04563468,
,,,,,,a,1,0.9016,,,,,,,,,0.9016,1,0,8,8,4,1,stimuli/blank.png,gerecht,a,TN10HL!,2023-08-21_10h36.58.147,openIAT,2023.1.3,Win32,60.04563468,
,,,,,,l,0,0.612,,,,,,,,,0.612,0,0,9,9,16,1,stimuli/blank.png,begabt,a,TN10HL!,2023-08-21_10h36.58.147,openIAT,2023.1.3,Win32,60.04563468,
,,,,,,l,1,1.3455,,,,,,,,,1.3455,1,0,10,10,9,1,stimuli/blank.png,lustlos,l,TN10HL!,2023-08-21_10h36.58.147,openIAT,2023.1.3,Win32,60.04563468,
,,,,,,a,1,3.4042,,,,,,,,,3.4042,1,0,11,11,0,1,stimuli/blank.png,aktiv,a,TN10HL!,2023-08-21_10h36.58.147,openIAT,2023.1.3,Win32,60.04563468,
,,,,,,a,1,0.6617,,,,,,,,,0.6617,1,0,12,12,14,1,stimuli/blank.png,gerecht,a,TN10HL!,2023-08-21_10h36.58.147,openIAT,2023.1.3,Win32,60.04563468,
,,,,,,l,1,0.6883,,,,,,,,,0.6883,1,0,13,13,11,1,stimuli/blank.png,brutal,l,TN10HL!,2023-08-21_10h36.58.147,openIAT,2023.1.3,Win32,60.04563468,
,,,,,,a,1,0.6982,,,,,,,,,0.6982,1,0,14,14,12,1,stimuli/blank.png,fröhlich,a,TN10HL!,2023-08-21_10h36.58.147,openIAT,2023.1.3,Win32,60.04563468,
,,,,,,l,1,0.9624,,,,,,,,,0.9624,1,0,15,15,15,1,stimuli/blank.png,träge,l,TN10HL!,2023-08-21_10h36.58.147,openIAT,2023.1.3,Win32,60.04563468,
,,,,,,a,1,0.7838,,,,,,,,,0.7838,1,0,16,16,2,1,stimuli/blank.png,fröhlich,a,TN10HL!,2023-08-21_10h36.58.147,openIAT,2023.1.3,Win32,60.04563468,
,,,,,,a,1,0.5879,,,,,,,,,0.5879,1,0,17,17,10,1,stimuli/blank.png,aktiv,a,TN10HL!,2023-08-21_10h36.58.147,openIAT,2023.1.3,Win32,60.04563468,
,,,,,,l,1,1.4802,,,,,,,,,1.4802,1,0,18,18,17,1,stimuli/blank.png,eitel,l,TN10HL!,2023-08-21_10h36.58.147,openIAT,2023.1.3,Win32,60.04563468,
,,,,,,l,1,0.8727,,,,,,,,,0.8727,1,0,19,19,7,1,stimuli/blank.png,eitel,l,TN10HL!,2023-08-21_10h36.58.147,openIAT,2023.1.3,Win32,60.04563468,
,,,,,,l,1,1.3572,,,,,,,,,1.3572,1,0,0,0,8,1,stimuli/blank.png,eure,l,TN10HL!,2023-08-21_10h36.58.147,openIAT,2023.1.3,Win32,60.04563468,
,,,,,,a,1,1.5681,,,,,,,,,1.5681,1,0,1,1,7,1,stimuli/blank.png,eigene,a,TN10HL!,2023-08-21_10h36.58.147,openIAT,2023.1.3,Win32,60.04563468,
,,,,,,a,1,2.2106,,,,,,,,,2.2106,1,0,2,2,1,1,stimuli/blank.png,ich,a,TN10HL!,2023-08-21_10h36.58.147,openIAT,2023.1.3,Win32,60.04563468,
,,,,,,l,1,1.796,,,,,,,,,1.796,1,0,3,3,6,1,stimuli/blank.png,euch,l,TN10HL!,2023-08-21_10h36.58.147,openIAT,2023.1.3,Win32,60.04563468,
,,,,,,l,1,2.1984,,,,,,,,,2.1984,1,0,4,4,12,1,stimuli/blank.png,ihr,l,TN10HL!,2023-08-21_10h36.58.147,openIAT,2023.1.3,Win32,60.04563468,
,,,,,,a,1,1.1282,,,,,,,,,1.1282,1,0,5,5,5,1,stimuli/blank.png,meine,a,TN10HL!,2023-08-21_10h36.58.147,openIAT,2023.1.3,Win32,60.04563468,
,,,,,,l,1,1.0616,,,,,,,,,1.0616,1,0,6,6,2,1,stimuli/blank.png,ihr,l,TN10HL!,2023-08-21_10h36.58.147,openIAT,2023.1.3,Win32,60.04563468,
,,,,,,a,1,1.1842,,,,,,,,,1.1842,1,0,7,7,11,1,stimuli/blank.png,ich,a,TN10HL!,2023-08-21_10h36.58.147,openIAT,2023.1.3,Win32,60.04563468,
,,,,,,a,1,0.781,,,,,,,,,0.781,1,0,8,8,13,1,stimuli/blank.png,mir,a,TN10HL!,2023-08-21_10h36.58.147,openIAT,2023.1.3,Win32,60.04563468,
,,,,,,a,1,0.7484,,,,,,,,,0.7484,1,0,9,9,15,1,stimuli/blank.png,meine,a,TN10HL!,2023-08-21_10h36.58.147,openIAT,2023.1.3,Win32,60.04563468,
,,,,,,l,1,0.7827,,,,,,,,,0.7827,1,0,10,10,0,1,stimuli/blank.png,andere,l,TN10HL!,2023-08-21_10h36.58.147,openIAT,2023.1.3,Win32,60.04563468,
,,,,,,a,1,0.646,,,,,,,,,0.646,1,0,11,11,17,1,stimuli/blank.png,eigene,a,TN10HL!,2023-08-21_10h36.58.147,openIAT,2023.1.3,Win32,60.04563468,
,,,,,,a,1,0.6158,,,,,,,,,0.6158,1,0,12,12,19,1,stimuli/blank.png,selbst,a,TN10HL!,2023-08-21_10h36.58.147,openIAT,2023.1.3,Win32,60.04563468,
,,,,,,l,1,0.7785,,,,,,,,,0.7785,1,0,13,13,10,1,stimuli/blank.png,andere,l,TN10HL!,2023-08-21_10h36.58.147,openIAT,2023.1.3,Win32,60.04563468,
,,,,,,l,1,0.9018,,,,,,,,,0.9018,1,0,14,14,14,1,stimuli/blank.png,jene,l,TN10HL!,2023-08-21_10h36.58.147,openIAT,2023.1.3,Win32,60.04563468,
,,,,,,a,1,1.0111,,,,,,,,,1.0111,1,0,15,15,9,1,stimuli/blank.png,selbst,a,TN10HL!,2023-08-21_10h36.58.147,openIAT,2023.1.3,Win32,60.04563468,
,,,,,,l,1,0.7346,,,,,,,,,0.7346,1,0,16,16,16,1,stimuli/blank.png,euch,l,TN10HL!,2023-08-21_10h36.58.147,openIAT,2023.1.3,Win32,60.04563468,
,,,,,,a,0,0.9644,,,,,,,,,0.9644,0,0,17,17,18,1,stimuli/blank.png,eure,l,TN10HL!,2023-08-21_10h36.58.147,openIAT,2023.1.3,Win32,60.04563468,
,,,,,,l,1,1.3449,,,,,,,,,1.3449,1,0,18,18,4,1,stimuli/blank.png,jene,l,TN10HL!,2023-08-21_10h36.58.147,openIAT,2023.1.3,Win32,60.04563468,
,,,,,,a,1,0.5195,,,,,,,,,0.5195,1,0,19,19,3,1,stimuli/blank.png,mir,a,TN10HL!,2023-08-21_10h36.58.147,openIAT,2023.1.3,Win32,60.04563468,
,,,,,,a,1,0.8585,,,,,,,,,0.8585,1,0,0,0,12,1,stimuli/blank.png,fröhlich,a,TN10HL!,2023-08-21_10h36.58.147,openIAT,2023.1.3,Win32,60.04563468,
,,,,,,l,1,0.6282,,,,,,,,,0.6282,1,0,1,1,13,1,stimuli/blank.png,verlogen,l,TN10HL!,2023-08-21_10h36.58.147,openIAT,2023.1.3,Win32,60.04563468,
,,,,,,l,1,0.8061,,,,,,,,,0.8061,1,0,2,2,6,1,stimuli/blank.png,euch,l,TN10HL!,2023-08-21_10h36.58.147,openIAT,2023.1.3,Win32,60.04563468,
,,,,,,l,1,0.8015,,,,,,,,,0.8015,1,0,3,3,17,1,stimuli/blank.png,eitel,l,TN10HL!,2023-08-21_10h36.58.147,openIAT,2023.1.3,Win32,60.04563468,
,,,,,,l,0,0.9137,,,,,,,,,0.9137,0,0,4,4,14,1,stimuli/blank.png,gerecht,a,TN10HL!,2023-08-21_10h36.58.147,openIAT,2023.1.3,Win32,60.04563468,
,,,,,,l,1,0.802,,,,,,,,,0.802,1,0,5,5,11,1,stimuli/blank.png,brutal,l,TN10HL!,2023-08-21_10h36.58.147,openIAT,2023.1.3,Win32,60.04563468,
,,,,,,a,1,0.6201,,,,,,,,,0.6201,1,0,6,6,9,1,stimuli/blank.png,selbst,a,TN10HL!,2023-08-21_10h36.58.147,openIAT,2023.1.3,Win32,60.04563468,
,,,,,,a,1,0.6864,,,,,,,,,0.6864,1,0,7,7,1,1,stimuli/blank.png,ich,a,TN10HL!,2023-08-21_10h36.58.147,openIAT,2023.1.3,Win32,60.04563468,
,,,,,,l,1,0.8211,,,,,,,,,0.8211,1,0,8,8,2,1,stimuli/blank.png,ihr,l,TN10HL!,2023-08-21_10h36.58.147,openIAT,2023.1.3,Win32,60.04563468,
,,,,,,a,1,1.5948,,,,,,,,,1.5948,1,0,9,9,10,1,stimuli/blank.png,aktiv,a,TN10HL!,2023-08-21_10h36.58.147,openIAT,2023.1.3,Win32,60.04563468,
,,,,,,a,1,0.6459,,,,,,,,,0.6459,1,0,10,10,7,1,stimuli/blank.png,eigene,a,TN10HL!,2023-08-21_10h36.58.147,openIAT,2023.1.3,Win32,60.04563468,
,,,,,,a,1,0.8123,,,,,,,,,0.8123,1,0,11,11,16,1,stimuli/blank.png,begabt,a,TN10HL!,2023-08-21_10h36.58.147,openIAT,2023.1.3,Win32,60.04563468,
,,,,,,a,1,0.804,,,,,,,,,0.804,1,0,12,12,18,1,stimuli/blank.png,human,a,TN10HL!,2023-08-21_10h36.58.147,openIAT,2023.1.3,Win32,60.04563468,
,,,,,,l,1,0.7301,,,,,,,,,0.7301,1,0,13,13,19,1,stimuli/blank.png,lustlos,l,TN10HL!,2023-08-21_10h36.58.147,openIAT,2023.1.3,Win32,60.04563468,
,,,,,,a,1,0.8347,,,,,,,,,0.8347,1,0,14,14,3,1,stimuli/blank.png,mir,a,TN10HL!,2023-08-21_10h36.58.147,openIAT,2023.1.3,Win32,60.04563468,
,,,,,,l,1,0.7478,,,,,,,,,0.7478,1,0,15,15,15,1,stimuli/blank.png,träge,l,TN10HL!,2023-08-21_10h36.58.147,openIAT,2023.1.3,Win32,60.04563468,
,,,,,,l,1,0.7527,,,,,,,,,0.7527,1,0,16,16,4,1,stimuli/blank.png,jene,l,TN10HL!,2023-08-21_10h36.58.147,openIAT,2023.1.3,Win32,60.04563468,
,,,,,,a,1,0.6692,,,,,,,,,0.6692,1,0,17,17,5,1,stimuli/blank.png,meine,a,TN10HL!,2023-08-21_10h36.58.147,openIAT,2023.1.3,Win32,60.04563468,
,,,,,,l,1,0.8131,,,,,,,,,0.8131,1,0,18,18,8,1,stimuli/blank.png,eure,l,TN10HL!,2023-08-21_10h36.58.147,openIAT,2023.1.3,Win32,60.04563468,
,,,,,,l,1,0.6846,,,,,,,,,0.6846,1,0,19,19,0,1,stimuli/blank.png,andere,l,TN10HL!,2023-08-21_10h36.58.147,openIAT,2023.1.3,Win32,60.04563468,
,,,,,,a,1,0.8462,,,,,,,,,0.8462,1,0,0,0,12,1,stimuli/blank.png,fröhlich,a,TN10HL!,2023-08-21_10h36.58.147,openIAT,2023.1.3,Win32,60.04563468,
,,,,,,a,1,0.5551,,,,,,,,,0.5551,1,0,1,1,34,1,stimuli/blank.png,gerecht,a,TN10HL!,2023-08-21_10h36.58.147,openIAT,2023.1.3,Win32,60.04563468,
,,,,,,l,1,0.7686,,,,,,,,,0.7686,1,0,2,2,4,1,stimuli/blank.png,jene,l,TN10HL!,2023-08-21_10h36.58.147,openIAT,2023.1.3,Win32,60.04563468,
,,,,,,a,1,0.8017,,,,,,,,,0.8017,1,0,3,3,5,1,stimuli/blank.png,meine,a,TN10HL!,2023-08-21_10h36.58.147,openIAT,2023.1.3,Win32,60.04563468,
,,,,,,a,1,0.517,,,,,,,,,0.517,1,0,4,4,25,1,stimuli/blank.png,meine,a,TN10HL!,2023-08-21_10h36.58.147,openIAT,2023.1.3,Win32,60.04563468,
,,,,,,l,1,0.5966,,,,,,,,,0.5966,1,0,5,5,39,1,stimuli/blank.png,lustlos,l,TN10HL!,2023-08-21_10h36.58.147,openIAT,2023.1.3,Win32,60.04563468,
,,,,,,l,1,0.7145,,,,,,,,,0.7145,1,0,6,6,13,1,stimuli/blank.png,verlogen,l,TN10HL!,2023-08-21_10h36.58.147,openIAT,2023.1.3,Win32,60.04563468,
,,,,,,l,1,0.9958,,,,,,,,,0.9958,1,0,7,7,37,1,stimuli/blank.png,eitel,l,TN10HL!,2023-08-21_10h36.58.147,openIAT,2023.1.3,Win32,60.04563468,
,,,,,,a,1,0.7952,,,,,,,,,0.7952,1,0,8,8,36,1,stimuli/blank.png,begabt,a,TN10HL!,2023-08-21_10h36.58.147,openIAT,2023.1.3,Win32,60.04563468,
,,,,,,a,1,0.6333,,,,,,,,,0.6333,1,0,9,9,23,1,stimuli/blank.png,mir,a,TN10HL!,2023-08-21_10h36.58.147,openIAT,2023.1.3,Win32,60.04563468,
,,,,,,l,1,0.6126,,,,,,,,,0.6126,1,0,10,10,15,1,stimuli/blank.png,träge,l,TN10HL!,2023-08-21_10h36.58.147,openIAT,2023.1.3,Win32,60.04563468,
,,,,,,l,1,0.5319,,,,,,,,,0.5319,1,0,11,11,17,1,stimuli/blank.png,eitel,l,TN10HL!,2023-08-21_10h36.58.147,openIAT,2023.1.3,Win32,60.04563468,
,,,,,,a,1,0.5308,,,,,,,,,0.5308,1,0,12,12,9,1,stimuli/blank.png,selbst,a,TN10HL!,2023-08-21_10h36.58.147,openIAT,2023.1.3,Win32,60.04563468,
,,,,,,l,1,0.6559,,,,,,,,,0.6559,1,0,13,13,0,1,stimuli/blank.png,andere,l,TN10HL!,2023-08-21_10h36.58.147,openIAT,2023.1.3,Win32,60.04563468,
,,,,,,l,1,0.4971,,,,,,,,,0.4971,1,0,14,14,31,1,stimuli/blank.png,brutal,l,TN10HL!,2023-08-21_10h36.58.147,openIAT,2023.1.3,Win32,60.04563468,
,,,,,,a,1,0.537,,,,,,,,,0.537,1,0,15,15,18,1,stimuli/blank.png,human,a,TN10HL!,2023-08-21_10h36.58.147,openIAT,2023.1.3,Win32,60.04563468,
,,,,,,l,1,0.4904,,,,,,,,,0.4904,1,0,16,16,24,1,stimuli/blank.png,jene,l,TN10HL!,2023-08-21_10h36.58.147,openIAT,2023.1.3,Win32,60.04563468,
,,,,,,l,1,0.7796,,,,,,,,,0.7796,1,0,17,17,19,1,stimuli/blank.png,lustlos,l,TN10HL!,2023-08-21_10h36.58.147,openIAT,2023.1.3,Win32,60.04563468,
,,,,,,a,1,0.6565,,,,,,,,,0.6565,1,0,18,18,29,1,stimuli/blank.png,selbst,a,TN10HL!,2023-08-21_10h36.58.147,openIAT,2023.1.3,Win32,60.04563468,
,,,,,,l,1,0.7042,,,,,,,,,0.7042,1,0,19,19,28,1,stimuli/blank.png,eure,l,TN10HL!,2023-08-21_10h36.58.147,openIAT,2023.1.3,Win32,60.04563468,
,,,,,,l,1,0.7789,,,,,,,,,0.7789,1,0,20,20,11,1,stimuli/blank.png,brutal,l,TN10HL!,2023-08-21_10h36.58.147,openIAT,2023.1.3,Win32,60.04563468,
,,,,,,l,1,0.6618,,,,,,,,,0.6618,1,0,21,21,26,1,stimuli/blank.png,euch,l,TN10HL!,2023-08-21_10h36.58.147,openIAT,2023.1.3,Win32,60.04563468,
,,,,,,a,1,0.5061,,,,,,,,,0.5061,1,0,22,22,32,1,stimuli/blank.png,fröhlich,a,TN10HL!,2023-08-21_10h36.58.147,openIAT,2023.1.3,Win32,60.04563468,
,,,,,,l,1,0.5808,,,,,,,,,0.5808,1,0,23,23,2,1,stimuli/blank.png,ihr,l,TN10HL!,2023-08-21_10h36.58.147,openIAT,2023.1.3,Win32,60.04563468,
,,,,,,l,1,0.4849,,,,,,,,,0.4849,1,0,24,24,8,1,stimuli/blank.png,eure,l,TN10HL!,2023-08-21_10h36.58.147,openIAT,2023.1.3,Win32,60.04563468,
,,,,,,l,1,0.5221,,,,,,,,,0.5221,1,0,25,25,6,1,stimuli/blank.png,euch,l,TN10HL!,2023-08-21_10h36.58.147,openIAT,2023.1.3,Win32,60.04563468,
,,,,,,a,1,1.0962,,,,,,,,,1.0962,1,0,26,26,38,1,stimuli/blank.png,human,a,TN10HL!,2023-08-21_10h36.58.147,openIAT,2023.1.3,Win32,60.04563468,
,,,,,,a,1,0.8498,,,,,,,,,0.8498,1,0,27,27,1,1,stimuli/blank.png,ich,a,TN10HL!,2023-08-21_10h36.58.147,openIAT,2023.1.3,Win32,60.04563468,
,,,,,,a,1,0.5535,,,,,,,,,0.5535,1,0,28,28,21,1,stimuli/blank.png,ich,a,TN10HL!,2023-08-21_10h36.58.147,openIAT,2023.1.3,Win32,60.04563468,
,,,,,,l,0,0.9466,,,,,,,,,0.9466,0,0,29,29,16,1,stimuli/blank.png,begabt,a,TN10HL!,2023-08-21_10h36.58.147,openIAT,2023.1.3,Win32,60.04563468,
,,,,,,a,1,0.9372,,,,,,,,,0.9372,1,0,30,30,7,1,stimuli/blank.png,eigene,a,TN10HL!,2023-08-21_10h36.58.147,openIAT,2023.1.3,Win32,60.04563468,
,,,,,,l,1,0.7032,,,,,,,,,0.7032,1,0,31,31,33,1,stimuli/blank.png,verlogen,l,TN10HL!,2023-08-21_10h36.58.147,openIAT,2023.1.3,Win32,60.04563468,
,,,,,,a,1,1.1682,,,,,,,,,1.1682,1,0,32,32,14,1,stimuli/blank.png,gerecht,a,TN10HL!,2023-08-21_10h36.58.147,openIAT,2023.1.3,Win32,60.04563468,
,,,,,,a,1,0.9284,,,,,,,,,0.9284,1,0,33,33,3,1,stimuli/blank.png,mir,a,TN10HL!,2023-08-21_10h36.58.147,openIAT,2023.1.3,Win32,60.04563468,
,,,,,,l,1,0.7206,,,,,,,,,0.7206,1,0,34,34,22,1,stimuli/blank.png,ihr,l,TN10HL!,2023-08-21_10h36.58.147,openIAT,2023.1.3,Win32,60.04563468,
,,,,,,a,1,0.6977,,,,,,,,,0.6977,1,0,35,35,10,1,stimuli/blank.png,aktiv,a,TN10HL!,2023-08-21_10h36.58.147,openIAT,2023.1.3,Win32,60.04563468,
,,,,,,a,1,0.7496,,,,,,,,,0.7496,1,0,36,36,30,1,stimuli/blank.png,aktiv,a,TN10HL!,2023-08-21_10h36.58.147,openIAT,2023.1.3,Win32,60.04563468,
,,,,,,l,1,1.4608,,,,,,,,,1.4608,1,0,37,37,20,1,stimuli/blank.png,andere,l,TN10HL!,2023-08-21_10h36.58.147,openIAT,2023.1.3,Win32,60.04563468,
,,,,,,a,1,0.5487,,,,,,,,,0.5487,1,0,38,38,27,1,stimuli/blank.png,eigene,a,TN10HL!,2023-08-21_10h36.58.147,openIAT,2023.1.3,Win32,60.04563468,
,,,,,,l,1,0.5563,,,,,,,,,0.5563,1,0,39,39,35,1,stimuli/blank.png,träge,l,TN10HL!,2023-08-21_10h36.58.147,openIAT,2023.1.3,Win32,60.04563468,
,,,,,,a,1,0.7139,,,,,,,,,0.7139,1,0,0,0,8,1,stimuli/blank.png,eure,a,TN10HL!,2023-08-21_10h36.58.147,openIAT,2023.1.3,Win32,60.04563468,
,,,,,,l,1,1.4689,,,,,,,,,1.4689,1,0,1,1,17,1,stimuli/blank.png,eigene,l,TN10HL!,2023-08-21_10h36.58.147,openIAT,2023.1.3,Win32,60.04563468,
,,,,,,a,1,0.9509,,,,,,,,,0.9509,1,0,2,2,4,1,stimuli/blank.png,jene,a,TN10HL!,2023-08-21_10h36.58.147,openIAT,2023.1.3,Win32,60.04563468,
,,,,,,a,1,0.7831,,,,,,,,,0.7831,1,0,3,3,16,1,stimuli/blank.png,euch,a,TN10HL!,2023-08-21_10h36.58.147,openIAT,2023.1.3,Win32,60.04563468,
,,,,,,l,1,0.6055,,,,,,,,,0.6055,1,0,4,4,5,1,stimuli/blank.png,meine,l,TN10HL!,2023-08-21_10h36.58.147,openIAT,2023.1.3,Win32,60.04563468,
,,,,,,l,1,0.5002,,,,,,,,,0.5002,1,0,5,5,3,1,stimuli/blank.png,mir,l,TN10HL!,2023-08-21_10h36.58.147,openIAT,2023.1.3,Win32,60.04563468,
,,,,,,a,1,0.6223,,,,,,,,,0.6223,1,0,6,6,14,1,stimuli/blank.png,jene,a,TN10HL!,2023-08-21_10h36.58.147,openIAT,2023.1.3,Win32,60.04563468,
,,,,,,l,1,0.6255,,,,,,,,,0.6255,1,0,7,7,1,1,stimuli/blank.png,ich,l,TN10HL!,2023-08-21_10h36.58.147,openIAT,2023.1.3,Win32,60.04563468,
,,,,,,l,1,0.6666,,,,,,,,,0.6666,1,0,8,8,9,1,stimuli/blank.png,selbst,l,TN10HL!,2023-08-21_10h36.58.147,openIAT,2023.1.3,Win32,60.04563468,
,,,,,,a,1,0.5884,,,,,,,,,0.5884,1,0,9,9,18,1,stimuli/blank.png,eure,a,TN10HL!,2023-08-21_10h36.58.147,openIAT,2023.1.3,Win32,60.04563468,
,,,,,,a,1,0.7426,,,,,,,,,0.7426,1,0,10,10,6,1,stimuli/blank.png,euch,a,TN10HL!,2023-08-21_10h36.58.147,openIAT,2023.1.3,Win32,60.04563468,
,,,,,,a,1,0.7097,,,,,,,,,0.7097,1,0,11,11,12,1,stimuli/blank.png,ihr,a,TN10HL!,2023-08-21_10h36.58.147,openIAT,2023.1.3,Win32,60.04563468,
,,,,,,l,1,0.5844,,,,,,,,,0.5844,1,0,12,12,19,1,stimuli/blank.png,selbst,l,TN10HL!,2023-08-21_10h36.58.147,openIAT,2023.1.3,Win32,60.04563468,
,,,,,,a,1,0.6345,,,,,,,,,0.6345,1,0,13,13,0,1,stimuli/blank.png,andere,a,TN10HL!,2023-08-21_10h36.58.147,openIAT,2023.1.3,Win32,60.04563468,
,,,,,,l,1,0.5334,,,,,,,,,0.5334,1,0,14,14,15,1,stimuli/blank.png,meine,l,TN10HL!,2023-08-21_10h36.58.147,openIAT,2023.1.3,Win32,60.04563468,
,,,,,,l,1,0.7576,,,,,,,,,0.7576,1,0,15,15,13,1,stimuli/blank.png,mir,l,TN10HL!,2023-08-21_10h36.58.147,openIAT,2023.1.3,Win32,60.04563468,
,,,,,,l,1,0.7236,,,,,,,,,0.7236,1,0,16,16,7,1,stimuli/blank.png,eigene,l,TN10HL!,2023-08-21_10h36.58.147,openIAT,2023.1.3,Win32,60.04563468,
,,,,,,l,1,0.4344,,,,,,,,,0.4344,1,0,17,17,11,1,stimuli/blank.png,ich,l,TN10HL!,2023-08-21_10h36.58.147,openIAT,2023.1.3,Win32,60.04563468,
,,,,,,a,1,0.7418,,,,,,,,,0.7418,1,0,18,18,2,1,stimuli/blank.png,ihr,a,TN10HL!,2023-08-21_10h36.58.147,openIAT,2023.1.3,Win32,60.04563468,
,,,,,,l,0,0.461,,,,,,,,,0.461,0,0,19,19,10,1,stimuli/blank.png,andere,a,TN10HL!,2023-08-21_10h36.58.147,openIAT,2023.1.3,Win32,60.04563468,
,,,,,,a,1,1.733,,,,,,,,,1.733,1,0,0,0,4,1,stimuli/blank.png,jene,a,TN10HL!,2023-08-21_10h36.58.147,openIAT,2023.1.3,Win32,60.04563468,
,,,,,,a,1,0.7178,,,,,,,,,0.7178,1,0,1,1,12,1,stimuli/blank.png,fröhlich,a,TN10HL!,2023-08-21_10h36.58.147,openIAT,2023.1.3,Win32,60.04563468,
,,,,,,l,1,0.6333,,,,,,,,,0.6333,1,0,2,2,13,1,stimuli/blank.png,verlogen,l,TN10HL!,2023-08-21_10h36.58.147,openIAT,2023.1.3,Win32,60.04563468,
,,,,,,a,1,0.9249,,,,,,,,,0.9249,1,0,3,3,8,1,stimuli/blank.png,eure,a,TN10HL!,2023-08-21_10h36.58.147,openIAT,2023.1.3,Win32,60.04563468,
,,,,,,a,1,0.8496,,,,,,,,,0.8496,1,0,4,4,2,1,stimuli/blank.png,ihr,a,TN10HL!,2023-08-21_10h36.58.147,openIAT,2023.1.3,Win32,60.04563468,
,,,,,,l,1,0.9008,,,,,,,,,0.9008,1,0,5,5,5,1,stimuli/blank.png,meine,l,TN10HL!,2023-08-21_10h36.58.147,openIAT,2023.1.3,Win32,60.04563468,
,,,,,,a,0,0.7506,,,,,,,,,0.7506,0,0,6,6,17,1,stimuli/blank.png,eitel,l,TN10HL!,2023-08-21_10h36.58.147,openIAT,2023.1.3,Win32,60.04563468,
,,,,,,a,1,1.9988,,,,,,,,,1.9988,1,0,7,7,10,1,stimuli/blank.png,aktiv,a,TN10HL!,2023-08-21_10h36.58.147,openIAT,2023.1.3,Win32,60.04563468,
,,,,,,l,1,0.9752,,,,,,,,,0.9752,1,0,8,8,11,1,stimuli/blank.png,brutal,l,TN10HL!,2023-08-21_10h36.58.147,openIAT,2023.1.3,Win32,60.04563468,
,,,,,,l,1,0.8167,,,,,,,,,0.8167,1,0,9,9,19,1,stimuli/blank.png,lustlos,l,TN10HL!,2023-08-21_10h36.58.147,openIAT,2023.1.3,Win32,60.04563468,
,,,,,,l,1,0.6851,,,,,,,,,0.6851,1,0,10,10,7,1,stimuli/blank.png,eigene,l,TN10HL!,2023-08-21_10h36.58.147,openIAT,2023.1.3,Win32,60.04563468,
,,,,,,l,1,0.6502,,,,,,,,,0.6502,1,0,11,11,3,1,stimuli/blank.png,mir,l,TN10HL!,2023-08-21_10h36.58.147,openIAT,2023.1.3,Win32,60.04563468,
,,,,,,l,1,0.6012,,,,,,,,,0.6012,1,0,12,12,9,1,stimuli/blank.png,selbst,l,TN10HL!,2023-08-21_10h36.58.147,openIAT,2023.1.3,Win32,60.04563468,
,,,,,,a,1,1.7984,,,,,,,,,1.7984,1,0,13,13,14,1,stimuli/blank.png,gerecht,a,TN10HL!,2023-08-21_10h36.58.147,openIAT,2023.1.3,Win32,60.04563468,
,,,,,,a,1,0.7343,,,,,,,,,0.7343,1,0,14,14,6,1,stimuli/blank.png,euch,a,TN10HL!,2023-08-21_10h36.58.147,openIAT,2023.1.3,Win32,60.04563468,
,,,,,,a,1,1.127,,,,,,,,,1.127,1,0,15,15,16,1,stimuli/blank.png,begabt,a,TN10HL!,2023-08-21_10h36.58.147,openIAT,2023.1.3,Win32,60.04563468,
,,,,,,a,0,0.5363,,,,,,,,,0.5363,0,0,16,16,1,1,stimuli/blank.png,ich,l,TN10HL!,2023-08-21_10h36.58.147,openIAT,2023.1.3,Win32,60.04563468,
,,,,,,a,1,0.9994,,,,,,,,,0.9994,1,0,17,17,0,1,stimuli/blank.png,andere,a,TN10HL!,2023-08-21_10h36.58.147,openIAT,2023.1.3,Win32,60.04563468,
,,,,,,l,1,0.9664,,,,,,,,,0.9664,1,0,18,18,15,1,stimuli/blank.png,träge,l,TN10HL!,2023-08-21_10h36.58.147,openIAT,2023.1.3,Win32,60.04563468,
,,,,,,a,1,1.2724,,,,,,,,,1.2724,1,0,19,19,18,1,stimuli/blank.png,human,a,TN10HL!,2023-08-21_10h36.58.147,openIAT,2023.1.3,Win32,60.04563468,
,,,,,,l,1,1.5493,,,,,,,,,1.5493,1,0,0,0,39,1,stimuli/blank.png,lustlos,l,TN10HL!,2023-08-21_10h36.58.147,openIAT,2023.1.3,Win32,60.04563468,
,,,,,,a,1,0.8343,,,,,,,,,0.8343,1,0,1,1,0,1,stimuli/blank.png,andere,a,TN10HL!,2023-08-21_10h36.58.147,openIAT,2023.1.3,Win32,60.04563468,
,,,,,,a,1,0.6773,,,,,,,,,0.6773,1,0,2,2,2,1,stimuli/blank.png,ihr,a,TN10HL!,2023-08-21_10h36.58.147,openIAT,2023.1.3,Win32,60.04563468,
,,,,,,a,1,0.5768,,,,,,,,,0.5768,1,0,3,3,28,1,stimuli/blank.png,eure,a,TN10HL!,2023-08-21_10h36.58.147,openIAT,2023.1.3,Win32,60.04563468,
,,,,,,l,1,0.6666,,,,,,,,,0.6666,1,0,4,4,13,1,stimuli/blank.png,verlogen,l,TN10HL!,2023-08-21_10h36.58.147,openIAT,2023.1.3,Win32,60.04563468,
,,,,,,a,0,0.5059,,,,,,,,,0.5059,0,0,5,5,5,1,stimuli/blank.png,meine,l,TN10HL!,2023-08-21_10h36.58.147,openIAT,2023.1.3,Win32,60.04563468,
,,,,,,a,1,0.8998,,,,,,,,,0.8998,1,0,6,6,22,1,stimuli/blank.png,ihr,a,TN10HL!,2023-08-21_10h36.58.147,openIAT,2023.1.3,Win32,60.04563468,
,,,,,,l,1,1.1504,,,,,,,,,1.1504,1,0,7,7,11,1,stimuli/blank.png,brutal,l,TN10HL!,2023-08-21_10h36.58.147,openIAT,2023.1.3,Win32,60.04563468,
,,,,,,a,1,0.9045,,,,,,,,,0.9045,1,0,8,8,32,1,stimuli/blank.png,fröhlich,a,TN10HL!,2023-08-21_10h36.58.147,openIAT,2023.1.3,Win32,60.04563468,
,,,,,,a,1,1.299,,,,,,,,,1.299,1,0,9,9,38,1,stimuli/blank.png,human,a,TN10HL!,2023-08-21_10h36.58.147,openIAT,2023.1.3,Win32,60.04563468,
,,,,,,l,1,1.65,,,,,,,,,1.65,1,0,10,10,19,1,stimuli/blank.png,lustlos,l,TN10HL!,2023-08-21_10h36.58.147,openIAT,2023.1.3,Win32,60.04563468,
,,,,,,a,1,0.9827,,,,,,,,,0.9827,1,0,11,11,14,1,stimuli/blank.png,gerecht,a,TN10HL!,2023-08-21_10h36.58.147,openIAT,2023.1.3,Win32,60.04563468,
,,,,,,l,1,0.8674,,,,,,,,,0.8674,1,0,12,12,9,1,stimuli/blank.png,selbst,l,TN10HL!,2023-08-21_10h36.58.147,openIAT,2023.1.3,Win32,60.04563468,
,,,,,,l,1,1.3546,,,,,,,,,1.3546,1,0,13,13,1,1,stimuli/blank.png,ich,l,TN10HL!,2023-08-21_10h36.58.147,openIAT,2023.1.3,Win32,60.04563468,
,,,,,,a,1,1.8327,,,,,,,,,1.8327,1,0,14,14,16,1,stimuli/blank.png,begabt,a,TN10HL!,2023-08-21_10h36.58.147,openIAT,2023.1.3,Win32,60.04563468,
,,,,,,a,1,1.4005,,,,,,,,,1.4005,1,0,15,15,12,1,stimuli/blank.png,fröhlich,a,TN10HL!,2023-08-21_10h36.58.147,openIAT,2023.1.3,Win32,60.04563468,
,,,,,,a,1,0.624,,,,,,,,,0.624,1,0,16,16,20,1,stimuli/blank.png,andere,a,TN10HL!,2023-08-21_10h36.58.147,openIAT,2023.1.3,Win32,60.04563468,
,,,,,,l,1,0.6784,,,,,,,,,0.6784,1,0,17,17,7,1,stimuli/blank.png,eigene,l,TN10HL!,2023-08-21_10h36.58.147,openIAT,2023.1.3,Win32,60.04563468,
,,,,,,l,1,0.6503,,,,,,,,,0.6503,1,0,18,18,25,1,stimuli/blank.png,meine,l,TN10HL!,2023-08-21_10h36.58.147,openIAT,2023.1.3,Win32,60.04563468,
,,,,,,l,0,0.7669,,,,,,,,,0.7669,0,0,19,19,10,1,stimuli/blank.png,aktiv,a,TN10HL!,2023-08-21_10h36.58.147,openIAT,2023.1.3,Win32,60.04563468,
,,,,,,l,1,3.0707,,,,,,,,,3.0707,1,0,20,20,3,1,stimuli/blank.png,mir,l,TN10HL!,2023-08-21_10h36.58.147,openIAT,2023.1.3,Win32,60.04563468,
,,,,,,a,1,2.8825,,,,,,,,,2.8825,1,0,21,21,6,1,stimuli/blank.png,euch,a,TN10HL!,2023-08-21_10h36.58.147,openIAT,2023.1.3,Win32,60.04563468,
,,,,,,l,1,2.9655,,,,,,,,,2.9655,1,0,22,22,29,1,stimuli/blank.png,selbst,l,TN10HL!,2023-08-21_10h36.58.147,openIAT,2023.1.3,Win32,60.04563468,
,,,,,,a,1,0.823,,,,,,,,,0.823,1,0,23,23,4,1,stimuli/blank.png,jene,a,TN10HL!,2023-08-21_10h36.58.147,openIAT,2023.1.3,Win32,60.04563468,
,,,,,,a,1,0.6493,,,,,,,,,0.6493,1,0,24,24,24,1,stimuli/blank.png,jene,a,TN10HL!,2023-08-21_10h36.58.147,openIAT,2023.1.3,Win32,60.04563468,
,,,,,,a,1,1.2496,,,,,,,,,1.2496,1,0,25,25,30,1,stimuli/blank.png,aktiv,a,TN10HL!,2023-08-21_10h36.58.147,openIAT,2023.1.3,Win32,60.04563468,
,,,,,,a,1,4.165,,,,,,,,,4.165,1,0,26,26,34,1,stimuli/blank.png,gerecht,a,TN10HL!,2023-08-21_10h36.58.147,openIAT,2023.1.3,Win32,60.04563468,
,,,,,,l,1,0.7343,,,,,,,,,0.7343,1,0,27,27,31,1,stimuli/blank.png,brutal,l,TN10HL!,2023-08-21_10h36.58.147,openIAT,2023.1.3,Win32,60.04563468,
,,,,,,a,1,0.6842,,,,,,,,,0.6842,1,0,28,28,26,1,stimuli/blank.png,euch,a,TN10HL!,2023-08-21_10h36.58.147,openIAT,2023.1.3,Win32,60.04563468,
,,,,,,l,0,1.0669,,,,,,,,,1.0669,0,0,29,29,18,1,stimuli/blank.png,human,a,TN10HL!,2023-08-21_10h36.58.147,openIAT,2023.1.3,Win32,60.04563468,
,,,,,,l,1,2.2318,,,,,,,,,2.2318,1,0,30,30,17,1,stimuli/blank.png,eitel,l,TN10HL!,2023-08-21_10h36.58.147,openIAT,2023.1.3,Win32,60.04563468,
,,,,,,l,1,0.7594,,,,,,,,,0.7594,1,0,31,31,21,1,stimuli/blank.png,ich,l,TN10HL!,2023-08-21_10h36.58.147,openIAT,2023.1.3,Win32,60.04563468,
,,,,,,a,1,0.6332,,,,,,,,,0.6332,1,0,32,32,8,1,stimuli/blank.png,eure,a,TN10HL!,2023-08-21_10h36.58.147,openIAT,2023.1.3,Win32,60.04563468,
,,,,,,l,1,0.7717,,,,,,,,,0.7717,1,0,33,33,37,1,stimuli/blank.png,eitel,l,TN10HL!,2023-08-21_10h36.58.147,openIAT,2023.1.3,Win32,60.04563468,
,,,,,,l,1,0.7278,,,,,,,,,0.7278,1,0,34,34,33,1,stimuli/blank.png,verlogen,l,TN10HL!,2023-08-21_10h36.58.147,openIAT,2023.1.3,Win32,60.04563468,
,,,,,,l,1,0.9072,,,,,,,,,0.9072,1,0,35,35,23,1,stimuli/blank.png,mir,l,TN10HL!,2023-08-21_10h36.58.147,openIAT,2023.1.3,Win32,60.04563468,
,,,,,,l,1,0.9764,,,,,,,,,0.9764,1,0,36,36,27,1,stimuli/blank.png,eigene,l,TN10HL!,2023-08-21_10h36.58.147,openIAT,2023.1.3,Win32,60.04563468,
,,,,,,l,1,1.0647,,,,,,,,,1.0647,1,0,37,37,15,1,stimuli/blank.png,träge,l,TN10HL!,2023-08-21_10h36.58.147,openIAT,2023.1.3,Win32,60.04563468,
,,,,,,a,1,0.8096,,,,,,,,,0.8096,1,0,38,38,36,1,stimuli/blank.png,begabt,a,TN10HL!,2023-08-21_10h36.58.147,openIAT,2023.1.3,Win32,60.04563468,
,,,,,,l,1,0.6886,,,,,,,,,0.6886,1,0,39,39,35,1,stimuli/blank.png,träge,l,TN10HL!,2023-08-21_10h36.58.147,openIAT,2023.1.3,Win32,60.04563468,
,,,,,,,,,,,,,,,,,,,,,,,,,,,TN10HL!,2023-08-21_10h36.58.147,openIAT,2023.1.3,Win32,60.04563468,
