instr_done_touch.x,instr_done_touch.y,instr_done_touch.leftButton,instr_done_touch.midButton,instr_done_touch.rightButton,instr_done_touch.clicked_name,key_resp.keys,key_resp.corr,key_resp.rt,key_resp.duration,touch_resp.x,touch_resp.y,touch_resp.leftButton,touch_resp.midButton,touch_resp.rightButton,touch_resp.time,touch_resp.clicked_name,rt,corr,trials.thisRepN,trials.thisTrialN,trials.thisN,trials.thisIndex,trials.ran,stimImage,stimWord,CorrAns,participant,date,expName,psychopyVersion,OS,frameRate,return_tic
0.048888889,-0.393333333,1,0,0,instr_done_button,l,1,1.576,,,,,,,,,1.576,1,0,0,0,15,1,stimuli/blank.png,träge,l,UE06UR,2023-08-13_23h06.25.538,openIAT,2023.1.3,MacIntel,58.82352941,
,,,,,,a,1,0.927,,,,,,,,,0.927,1,0,1,1,4,1,stimuli/blank.png,gerecht,a,UE06UR,2023-08-13_23h06.25.538,openIAT,2023.1.3,MacIntel,58.82352941,
,,,,,,l,1,0.661,,,,,,,,,0.661,1,0,2,2,3,1,stimuli/blank.png,verlogen,l,UE06UR,2023-08-13_23h06.25.538,openIAT,2023.1.3,MacIntel,58.82352941,
,,,,,,a,1,0.498,,,,,,,,,0.498,1,0,3,3,6,1,stimuli/blank.png,begabt,a,UE06UR,2023-08-13_23h06.25.538,openIAT,2023.1.3,MacIntel,58.82352941,
,,,,,,l,1,0.527,,,,,,,,,0.527,1,0,4,4,5,1,stimuli/blank.png,träge,l,UE06UR,2023-08-13_23h06.25.538,openIAT,2023.1.3,MacIntel,58.82352941,
,,,,,,a,1,0.795,,,,,,,,,0.795,1,0,5,5,14,1,stimuli/blank.png,gerecht,a,UE06UR,2023-08-13_23h06.25.538,openIAT,2023.1.3,MacIntel,58.82352941,
,,,,,,l,1,0.843,,,,,,,,,0.843,1,0,6,6,9,1,stimuli/blank.png,lustlos,l,UE06UR,2023-08-13_23h06.25.538,openIAT,2023.1.3,MacIntel,58.82352941,
,,,,,,l,1,0.785,,,,,,,,,0.785,1,0,7,7,11,1,stimuli/blank.png,brutal,l,UE06UR,2023-08-13_23h06.25.538,openIAT,2023.1.3,MacIntel,58.82352941,
,,,,,,a,1,0.719,,,,,,,,,0.719,1,0,8,8,0,1,stimuli/blank.png,aktiv,a,UE06UR,2023-08-13_23h06.25.538,openIAT,2023.1.3,MacIntel,58.82352941,
,,,,,,l,1,0.713,,,,,,,,,0.713,1,0,9,9,19,1,stimuli/blank.png,lustlos,l,UE06UR,2023-08-13_23h06.25.538,openIAT,2023.1.3,MacIntel,58.82352941,
,,,,,,a,1,0.477,,,,,,,,,0.477,1,0,10,10,10,1,stimuli/blank.png,aktiv,a,UE06UR,2023-08-13_23h06.25.538,openIAT,2023.1.3,MacIntel,58.82352941,
,,,,,,a,1,0.945,,,,,,,,,0.945,1,0,11,11,18,1,stimuli/blank.png,human,a,UE06UR,2023-08-13_23h06.25.538,openIAT,2023.1.3,MacIntel,58.82352941,
,,,,,,a,1,0.517,,,,,,,,,0.517,1,0,12,12,8,1,stimuli/blank.png,human,a,UE06UR,2023-08-13_23h06.25.538,openIAT,2023.1.3,MacIntel,58.82352941,
,,,,,,a,1,0.679,,,,,,,,,0.679,1,0,13,13,16,1,stimuli/blank.png,begabt,a,UE06UR,2023-08-13_23h06.25.538,openIAT,2023.1.3,MacIntel,58.82352941,
,,,,,,l,1,0.578,,,,,,,,,0.578,1,0,14,14,13,1,stimuli/blank.png,verlogen,l,UE06UR,2023-08-13_23h06.25.538,openIAT,2023.1.3,MacIntel,58.82352941,
,,,,,,l,1,1.011,,,,,,,,,1.011,1,0,15,15,17,1,stimuli/blank.png,eitel,l,UE06UR,2023-08-13_23h06.25.538,openIAT,2023.1.3,MacIntel,58.82352941,
,,,,,,a,1,0.661,,,,,,,,,0.661,1,0,16,16,2,1,stimuli/blank.png,fröhlich,a,UE06UR,2023-08-13_23h06.25.538,openIAT,2023.1.3,MacIntel,58.82352941,
,,,,,,a,1,0.917,,,,,,,,,0.917,1,0,17,17,12,1,stimuli/blank.png,fröhlich,a,UE06UR,2023-08-13_23h06.25.538,openIAT,2023.1.3,MacIntel,58.82352941,
,,,,,,a,0,0.563,,,,,,,,,0.563,0,0,18,18,7,1,stimuli/blank.png,eitel,l,UE06UR,2023-08-13_23h06.25.538,openIAT,2023.1.3,MacIntel,58.82352941,
,,,,,,l,1,1.069,,,,,,,,,1.069,1,0,19,19,1,1,stimuli/blank.png,brutal,l,UE06UR,2023-08-13_23h06.25.538,openIAT,2023.1.3,MacIntel,58.82352941,
,,,,,,l,1,1.156,,,,,,,,,1.156,1,0,0,0,12,1,stimuli/blank.png,ihr,l,UE06UR,2023-08-13_23h06.25.538,openIAT,2023.1.3,MacIntel,58.82352941,
,,,,,,l,1,0.694,,,,,,,,,0.694,1,0,1,1,8,1,stimuli/blank.png,eure,l,UE06UR,2023-08-13_23h06.25.538,openIAT,2023.1.3,MacIntel,58.82352941,
,,,,,,l,1,0.981,,,,,,,,,0.981,1,0,2,2,14,1,stimuli/blank.png,jene,l,UE06UR,2023-08-13_23h06.25.538,openIAT,2023.1.3,MacIntel,58.82352941,
,,,,,,a,1,0.563,,,,,,,,,0.563,1,0,3,3,3,1,stimuli/blank.png,mir,a,UE06UR,2023-08-13_23h06.25.538,openIAT,2023.1.3,MacIntel,58.82352941,
,,,,,,a,1,1.31,,,,,,,,,1.31,1,0,4,4,17,1,stimuli/blank.png,eigene,a,UE06UR,2023-08-13_23h06.25.538,openIAT,2023.1.3,MacIntel,58.82352941,
,,,,,,l,1,1.178,,,,,,,,,1.178,1,0,5,5,10,1,stimuli/blank.png,andere,l,UE06UR,2023-08-13_23h06.25.538,openIAT,2023.1.3,MacIntel,58.82352941,
,,,,,,a,1,0.677,,,,,,,,,0.677,1,0,6,6,15,1,stimuli/blank.png,meine,a,UE06UR,2023-08-13_23h06.25.538,openIAT,2023.1.3,MacIntel,58.82352941,
,,,,,,a,1,0.581,,,,,,,,,0.581,1,0,7,7,19,1,stimuli/blank.png,selbst,a,UE06UR,2023-08-13_23h06.25.538,openIAT,2023.1.3,MacIntel,58.82352941,
,,,,,,l,1,0.745,,,,,,,,,0.745,1,0,8,8,18,1,stimuli/blank.png,eure,l,UE06UR,2023-08-13_23h06.25.538,openIAT,2023.1.3,MacIntel,58.82352941,
,,,,,,a,1,0.662,,,,,,,,,0.662,1,0,9,9,11,1,stimuli/blank.png,ich,a,UE06UR,2023-08-13_23h06.25.538,openIAT,2023.1.3,MacIntel,58.82352941,
,,,,,,a,1,0.532,,,,,,,,,0.532,1,0,10,10,5,1,stimuli/blank.png,meine,a,UE06UR,2023-08-13_23h06.25.538,openIAT,2023.1.3,MacIntel,58.82352941,
,,,,,,l,1,0.612,,,,,,,,,0.612,1,0,11,11,16,1,stimuli/blank.png,euch,l,UE06UR,2023-08-13_23h06.25.538,openIAT,2023.1.3,MacIntel,58.82352941,
,,,,,,l,1,0.692,,,,,,,,,0.692,1,0,12,12,6,1,stimuli/blank.png,euch,l,UE06UR,2023-08-13_23h06.25.538,openIAT,2023.1.3,MacIntel,58.82352941,
,,,,,,a,1,0.367,,,,,,,,,0.367,1,0,13,13,13,1,stimuli/blank.png,mir,a,UE06UR,2023-08-13_23h06.25.538,openIAT,2023.1.3,MacIntel,58.82352941,
,,,,,,l,1,0.563,,,,,,,,,0.563,1,0,14,14,0,1,stimuli/blank.png,andere,l,UE06UR,2023-08-13_23h06.25.538,openIAT,2023.1.3,MacIntel,58.82352941,
,,,,,,a,1,0.345,,,,,,,,,0.345,1,0,15,15,1,1,stimuli/blank.png,ich,a,UE06UR,2023-08-13_23h06.25.538,openIAT,2023.1.3,MacIntel,58.82352941,
,,,,,,l,1,0.595,,,,,,,,,0.595,1,0,16,16,4,1,stimuli/blank.png,jene,l,UE06UR,2023-08-13_23h06.25.538,openIAT,2023.1.3,MacIntel,58.82352941,
,,,,,,a,0,0.38,,,,,,,,,0.38,0,0,17,17,2,1,stimuli/blank.png,ihr,l,UE06UR,2023-08-13_23h06.25.538,openIAT,2023.1.3,MacIntel,58.82352941,
,,,,,,a,1,1.229,,,,,,,,,1.229,1,0,18,18,9,1,stimuli/blank.png,selbst,a,UE06UR,2023-08-13_23h06.25.538,openIAT,2023.1.3,MacIntel,58.82352941,
,,,,,,a,1,0.946,,,,,,,,,0.946,1,0,19,19,7,1,stimuli/blank.png,eigene,a,UE06UR,2023-08-13_23h06.25.538,openIAT,2023.1.3,MacIntel,58.82352941,
,,,,,,a,1,0.895,,,,,,,,,0.895,1,0,0,0,16,1,stimuli/blank.png,begabt,a,UE06UR,2023-08-13_23h06.25.538,openIAT,2023.1.3,MacIntel,58.82352941,
,,,,,,a,1,0.696,,,,,,,,,0.696,1,0,1,1,7,1,stimuli/blank.png,eigene,a,UE06UR,2023-08-13_23h06.25.538,openIAT,2023.1.3,MacIntel,58.82352941,
,,,,,,a,1,0.528,,,,,,,,,0.528,1,0,2,2,12,1,stimuli/blank.png,fröhlich,a,UE06UR,2023-08-13_23h06.25.538,openIAT,2023.1.3,MacIntel,58.82352941,
,,,,,,a,1,0.828,,,,,,,,,0.828,1,0,3,3,9,1,stimuli/blank.png,selbst,a,UE06UR,2023-08-13_23h06.25.538,openIAT,2023.1.3,MacIntel,58.82352941,
,,,,,,a,1,0.495,,,,,,,,,0.495,1,0,4,4,1,1,stimuli/blank.png,ich,a,UE06UR,2023-08-13_23h06.25.538,openIAT,2023.1.3,MacIntel,58.82352941,
,,,,,,l,1,0.778,,,,,,,,,0.778,1,0,5,5,4,1,stimuli/blank.png,jene,l,UE06UR,2023-08-13_23h06.25.538,openIAT,2023.1.3,MacIntel,58.82352941,
,,,,,,a,1,0.496,,,,,,,,,0.496,1,0,6,6,3,1,stimuli/blank.png,mir,a,UE06UR,2023-08-13_23h06.25.538,openIAT,2023.1.3,MacIntel,58.82352941,
,,,,,,a,1,0.837,,,,,,,,,0.837,1,0,7,7,14,1,stimuli/blank.png,gerecht,a,UE06UR,2023-08-13_23h06.25.538,openIAT,2023.1.3,MacIntel,58.82352941,
,,,,,,a,1,0.829,,,,,,,,,0.829,1,0,8,8,18,1,stimuli/blank.png,human,a,UE06UR,2023-08-13_23h06.25.538,openIAT,2023.1.3,MacIntel,58.82352941,
,,,,,,l,1,0.562,,,,,,,,,0.562,1,0,9,9,11,1,stimuli/blank.png,brutal,l,UE06UR,2023-08-13_23h06.25.538,openIAT,2023.1.3,MacIntel,58.82352941,
,,,,,,l,1,0.645,,,,,,,,,0.645,1,0,10,10,8,1,stimuli/blank.png,eure,l,UE06UR,2023-08-13_23h06.25.538,openIAT,2023.1.3,MacIntel,58.82352941,
,,,,,,l,1,0.799,,,,,,,,,0.799,1,0,11,11,17,1,stimuli/blank.png,eitel,l,UE06UR,2023-08-13_23h06.25.538,openIAT,2023.1.3,MacIntel,58.82352941,
,,,,,,l,1,0.712,,,,,,,,,0.712,1,0,12,12,13,1,stimuli/blank.png,verlogen,l,UE06UR,2023-08-13_23h06.25.538,openIAT,2023.1.3,MacIntel,58.82352941,
,,,,,,l,1,0.646,,,,,,,,,0.646,1,0,13,13,15,1,stimuli/blank.png,träge,l,UE06UR,2023-08-13_23h06.25.538,openIAT,2023.1.3,MacIntel,58.82352941,
,,,,,,a,1,0.495,,,,,,,,,0.495,1,0,14,14,5,1,stimuli/blank.png,meine,a,UE06UR,2023-08-13_23h06.25.538,openIAT,2023.1.3,MacIntel,58.82352941,
,,,,,,l,1,0.535,,,,,,,,,0.535,1,0,15,15,2,1,stimuli/blank.png,ihr,l,UE06UR,2023-08-13_23h06.25.538,openIAT,2023.1.3,MacIntel,58.82352941,
,,,,,,l,1,0.562,,,,,,,,,0.562,1,0,16,16,0,1,stimuli/blank.png,andere,l,UE06UR,2023-08-13_23h06.25.538,openIAT,2023.1.3,MacIntel,58.82352941,
,,,,,,l,1,2.186,,,,,,,,,2.186,1,0,17,17,19,1,stimuli/blank.png,lustlos,l,UE06UR,2023-08-13_23h06.25.538,openIAT,2023.1.3,MacIntel,58.82352941,
,,,,,,a,1,0.696,,,,,,,,,0.696,1,0,18,18,10,1,stimuli/blank.png,aktiv,a,UE06UR,2023-08-13_23h06.25.538,openIAT,2023.1.3,MacIntel,58.82352941,
,,,,,,l,1,1.079,,,,,,,,,1.079,1,0,19,19,6,1,stimuli/blank.png,euch,l,UE06UR,2023-08-13_23h06.25.538,openIAT,2023.1.3,MacIntel,58.82352941,
,,,,,,l,1,0.845,,,,,,,,,0.845,1,0,0,0,15,1,stimuli/blank.png,träge,l,UE06UR,2023-08-13_23h06.25.538,openIAT,2023.1.3,MacIntel,58.82352941,
,,,,,,l,0,0.633,,,,,,,,,0.633,0,0,1,1,16,1,stimuli/blank.png,begabt,a,UE06UR,2023-08-13_23h06.25.538,openIAT,2023.1.3,MacIntel,58.82352941,
,,,,,,a,1,2.133,,,,,,,,,2.133,1,0,2,2,9,1,stimuli/blank.png,selbst,a,UE06UR,2023-08-13_23h06.25.538,openIAT,2023.1.3,MacIntel,58.82352941,
,,,,,,a,1,0.77,,,,,,,,,0.77,1,0,3,3,34,1,stimuli/blank.png,gerecht,a,UE06UR,2023-08-13_23h06.25.538,openIAT,2023.1.3,MacIntel,58.82352941,
,,,,,,a,1,1.492,,,,,,,,,1.492,1,0,4,4,21,1,stimuli/blank.png,ich,a,UE06UR,2023-08-13_23h06.25.538,openIAT,2023.1.3,MacIntel,58.82352941,
,,,,,,a,1,0.646,,,,,,,,,0.646,1,0,5,5,5,1,stimuli/blank.png,meine,a,UE06UR,2023-08-13_23h06.25.538,openIAT,2023.1.3,MacIntel,58.82352941,
,,,,,,l,1,0.645,,,,,,,,,0.645,1,0,6,6,8,1,stimuli/blank.png,eure,l,UE06UR,2023-08-13_23h06.25.538,openIAT,2023.1.3,MacIntel,58.82352941,
,,,,,,l,1,0.783,,,,,,,,,0.783,1,0,7,7,39,1,stimuli/blank.png,lustlos,l,UE06UR,2023-08-13_23h06.25.538,openIAT,2023.1.3,MacIntel,58.82352941,
,,,,,,l,1,0.813,,,,,,,,,0.813,1,0,8,8,0,1,stimuli/blank.png,andere,l,UE06UR,2023-08-13_23h06.25.538,openIAT,2023.1.3,MacIntel,58.82352941,
,,,,,,l,1,0.611,,,,,,,,,0.611,1,0,9,9,22,1,stimuli/blank.png,ihr,l,UE06UR,2023-08-13_23h06.25.538,openIAT,2023.1.3,MacIntel,58.82352941,
,,,,,,a,1,0.647,,,,,,,,,0.647,1,0,10,10,30,1,stimuli/blank.png,aktiv,a,UE06UR,2023-08-13_23h06.25.538,openIAT,2023.1.3,MacIntel,58.82352941,
,,,,,,l,1,0.551,,,,,,,,,0.551,1,0,11,11,31,1,stimuli/blank.png,brutal,l,UE06UR,2023-08-13_23h06.25.538,openIAT,2023.1.3,MacIntel,58.82352941,
,,,,,,l,1,0.761,,,,,,,,,0.761,1,0,12,12,4,1,stimuli/blank.png,jene,l,UE06UR,2023-08-13_23h06.25.538,openIAT,2023.1.3,MacIntel,58.82352941,
,,,,,,a,1,0.662,,,,,,,,,0.662,1,0,13,13,27,1,stimuli/blank.png,eigene,a,UE06UR,2023-08-13_23h06.25.538,openIAT,2023.1.3,MacIntel,58.82352941,
,,,,,,a,1,0.961,,,,,,,,,0.961,1,0,14,14,38,1,stimuli/blank.png,human,a,UE06UR,2023-08-13_23h06.25.538,openIAT,2023.1.3,MacIntel,58.82352941,
,,,,,,l,1,0.798,,,,,,,,,0.798,1,0,15,15,35,1,stimuli/blank.png,träge,l,UE06UR,2023-08-13_23h06.25.538,openIAT,2023.1.3,MacIntel,58.82352941,
,,,,,,l,1,0.578,,,,,,,,,0.578,1,0,16,16,33,1,stimuli/blank.png,verlogen,l,UE06UR,2023-08-13_23h06.25.538,openIAT,2023.1.3,MacIntel,58.82352941,
,,,,,,a,1,0.83,,,,,,,,,0.83,1,0,17,17,18,1,stimuli/blank.png,human,a,UE06UR,2023-08-13_23h06.25.538,openIAT,2023.1.3,MacIntel,58.82352941,
,,,,,,l,1,0.662,,,,,,,,,0.662,1,0,18,18,37,1,stimuli/blank.png,eitel,l,UE06UR,2023-08-13_23h06.25.538,openIAT,2023.1.3,MacIntel,58.82352941,
,,,,,,l,1,0.529,,,,,,,,,0.529,1,0,19,19,28,1,stimuli/blank.png,eure,l,UE06UR,2023-08-13_23h06.25.538,openIAT,2023.1.3,MacIntel,58.82352941,
,,,,,,l,1,0.586,,,,,,,,,0.586,1,0,20,20,13,1,stimuli/blank.png,verlogen,l,UE06UR,2023-08-13_23h06.25.538,openIAT,2023.1.3,MacIntel,58.82352941,
,,,,,,l,1,0.563,,,,,,,,,0.563,1,0,21,21,11,1,stimuli/blank.png,brutal,l,UE06UR,2023-08-13_23h06.25.538,openIAT,2023.1.3,MacIntel,58.82352941,
,,,,,,l,1,0.58,,,,,,,,,0.58,1,0,22,22,20,1,stimuli/blank.png,andere,l,UE06UR,2023-08-13_23h06.25.538,openIAT,2023.1.3,MacIntel,58.82352941,
,,,,,,l,1,0.788,,,,,,,,,0.788,1,0,23,23,26,1,stimuli/blank.png,euch,l,UE06UR,2023-08-13_23h06.25.538,openIAT,2023.1.3,MacIntel,58.82352941,
,,,,,,a,1,0.496,,,,,,,,,0.496,1,0,24,24,12,1,stimuli/blank.png,fröhlich,a,UE06UR,2023-08-13_23h06.25.538,openIAT,2023.1.3,MacIntel,58.82352941,
,,,,,,a,1,0.647,,,,,,,,,0.647,1,0,25,25,3,1,stimuli/blank.png,mir,a,UE06UR,2023-08-13_23h06.25.538,openIAT,2023.1.3,MacIntel,58.82352941,
,,,,,,l,1,0.546,,,,,,,,,0.546,1,0,26,26,2,1,stimuli/blank.png,ihr,l,UE06UR,2023-08-13_23h06.25.538,openIAT,2023.1.3,MacIntel,58.82352941,
,,,,,,a,1,0.561,,,,,,,,,0.561,1,0,27,27,1,1,stimuli/blank.png,ich,a,UE06UR,2023-08-13_23h06.25.538,openIAT,2023.1.3,MacIntel,58.82352941,
,,,,,,l,1,0.497,,,,,,,,,0.497,1,0,28,28,6,1,stimuli/blank.png,euch,l,UE06UR,2023-08-13_23h06.25.538,openIAT,2023.1.3,MacIntel,58.82352941,
,,,,,,a,1,0.614,,,,,,,,,0.614,1,0,29,29,36,1,stimuli/blank.png,begabt,a,UE06UR,2023-08-13_23h06.25.538,openIAT,2023.1.3,MacIntel,58.82352941,
,,,,,,l,1,0.718,,,,,,,,,0.718,1,0,30,30,17,1,stimuli/blank.png,eitel,l,UE06UR,2023-08-13_23h06.25.538,openIAT,2023.1.3,MacIntel,58.82352941,
,,,,,,a,1,0.546,,,,,,,,,0.546,1,0,31,31,10,1,stimuli/blank.png,aktiv,a,UE06UR,2023-08-13_23h06.25.538,openIAT,2023.1.3,MacIntel,58.82352941,
,,,,,,a,1,0.73,,,,,,,,,0.73,1,0,32,32,29,1,stimuli/blank.png,selbst,a,UE06UR,2023-08-13_23h06.25.538,openIAT,2023.1.3,MacIntel,58.82352941,
,,,,,,a,1,0.529,,,,,,,,,0.529,1,0,33,33,32,1,stimuli/blank.png,fröhlich,a,UE06UR,2023-08-13_23h06.25.538,openIAT,2023.1.3,MacIntel,58.82352941,
,,,,,,l,1,1.171,,,,,,,,,1.171,1,0,34,34,24,1,stimuli/blank.png,jene,l,UE06UR,2023-08-13_23h06.25.538,openIAT,2023.1.3,MacIntel,58.82352941,
,,,,,,a,1,0.48,,,,,,,,,0.48,1,0,35,35,25,1,stimuli/blank.png,meine,a,UE06UR,2023-08-13_23h06.25.538,openIAT,2023.1.3,MacIntel,58.82352941,
,,,,,,a,1,0.813,,,,,,,,,0.813,1,0,36,36,14,1,stimuli/blank.png,gerecht,a,UE06UR,2023-08-13_23h06.25.538,openIAT,2023.1.3,MacIntel,58.82352941,
,,,,,,l,1,0.83,,,,,,,,,0.83,1,0,37,37,19,1,stimuli/blank.png,lustlos,l,UE06UR,2023-08-13_23h06.25.538,openIAT,2023.1.3,MacIntel,58.82352941,
,,,,,,a,1,0.615,,,,,,,,,0.615,1,0,38,38,23,1,stimuli/blank.png,mir,a,UE06UR,2023-08-13_23h06.25.538,openIAT,2023.1.3,MacIntel,58.82352941,
,,,,,,a,1,0.931,,,,,,,,,0.931,1,0,39,39,7,1,stimuli/blank.png,eigene,a,UE06UR,2023-08-13_23h06.25.538,openIAT,2023.1.3,MacIntel,58.82352941,
,,,,,,l,1,0.86,,,,,,,,,0.86,1,0,0,0,9,1,stimuli/blank.png,selbst,l,UE06UR,2023-08-13_23h06.25.538,openIAT,2023.1.3,MacIntel,58.82352941,
,,,,,,a,1,0.561,,,,,,,,,0.561,1,0,1,1,6,1,stimuli/blank.png,euch,a,UE06UR,2023-08-13_23h06.25.538,openIAT,2023.1.3,MacIntel,58.82352941,
,,,,,,l,1,0.46,,,,,,,,,0.46,1,0,2,2,5,1,stimuli/blank.png,meine,l,UE06UR,2023-08-13_23h06.25.538,openIAT,2023.1.3,MacIntel,58.82352941,
,,,,,,l,1,0.445,,,,,,,,,0.445,1,0,3,3,13,1,stimuli/blank.png,mir,l,UE06UR,2023-08-13_23h06.25.538,openIAT,2023.1.3,MacIntel,58.82352941,
,,,,,,l,1,0.646,,,,,,,,,0.646,1,0,4,4,17,1,stimuli/blank.png,eigene,l,UE06UR,2023-08-13_23h06.25.538,openIAT,2023.1.3,MacIntel,58.82352941,
,,,,,,a,1,0.648,,,,,,,,,0.648,1,0,5,5,12,1,stimuli/blank.png,ihr,a,UE06UR,2023-08-13_23h06.25.538,openIAT,2023.1.3,MacIntel,58.82352941,
,,,,,,a,1,0.979,,,,,,,,,0.979,1,0,6,6,8,1,stimuli/blank.png,eure,a,UE06UR,2023-08-13_23h06.25.538,openIAT,2023.1.3,MacIntel,58.82352941,
,,,,,,a,1,0.695,,,,,,,,,0.695,1,0,7,7,0,1,stimuli/blank.png,andere,a,UE06UR,2023-08-13_23h06.25.538,openIAT,2023.1.3,MacIntel,58.82352941,
,,,,,,a,0,0.571,,,,,,,,,0.571,0,0,8,8,7,1,stimuli/blank.png,eigene,l,UE06UR,2023-08-13_23h06.25.538,openIAT,2023.1.3,MacIntel,58.82352941,
,,,,,,a,1,1.395,,,,,,,,,1.395,1,0,9,9,14,1,stimuli/blank.png,jene,a,UE06UR,2023-08-13_23h06.25.538,openIAT,2023.1.3,MacIntel,58.82352941,
,,,,,,a,1,0.634,,,,,,,,,0.634,1,0,10,10,4,1,stimuli/blank.png,jene,a,UE06UR,2023-08-13_23h06.25.538,openIAT,2023.1.3,MacIntel,58.82352941,
,,,,,,a,1,0.551,,,,,,,,,0.551,1,0,11,11,18,1,stimuli/blank.png,eure,a,UE06UR,2023-08-13_23h06.25.538,openIAT,2023.1.3,MacIntel,58.82352941,
,,,,,,l,1,0.846,,,,,,,,,0.846,1,0,12,12,11,1,stimuli/blank.png,ich,l,UE06UR,2023-08-13_23h06.25.538,openIAT,2023.1.3,MacIntel,58.82352941,
,,,,,,l,1,0.98,,,,,,,,,0.98,1,0,13,13,15,1,stimuli/blank.png,meine,l,UE06UR,2023-08-13_23h06.25.538,openIAT,2023.1.3,MacIntel,58.82352941,
,,,,,,a,1,0.679,,,,,,,,,0.679,1,0,14,14,10,1,stimuli/blank.png,andere,a,UE06UR,2023-08-13_23h06.25.538,openIAT,2023.1.3,MacIntel,58.82352941,
,,,,,,a,1,0.68,,,,,,,,,0.68,1,0,15,15,16,1,stimuli/blank.png,euch,a,UE06UR,2023-08-13_23h06.25.538,openIAT,2023.1.3,MacIntel,58.82352941,
,,,,,,a,1,0.579,,,,,,,,,0.579,1,0,16,16,2,1,stimuli/blank.png,ihr,a,UE06UR,2023-08-13_23h06.25.538,openIAT,2023.1.3,MacIntel,58.82352941,
,,,,,,l,1,0.499,,,,,,,,,0.499,1,0,17,17,19,1,stimuli/blank.png,selbst,l,UE06UR,2023-08-13_23h06.25.538,openIAT,2023.1.3,MacIntel,58.82352941,
,,,,,,l,1,0.853,,,,,,,,,0.853,1,0,18,18,3,1,stimuli/blank.png,mir,l,UE06UR,2023-08-13_23h06.25.538,openIAT,2023.1.3,MacIntel,58.82352941,
,,,,,,l,1,0.697,,,,,,,,,0.697,1,0,19,19,1,1,stimuli/blank.png,ich,l,UE06UR,2023-08-13_23h06.25.538,openIAT,2023.1.3,MacIntel,58.82352941,
,,,,,,a,1,0.955,,,,,,,,,0.955,1,0,0,0,12,1,stimuli/blank.png,fröhlich,a,UE06UR,2023-08-13_23h06.25.538,openIAT,2023.1.3,MacIntel,58.82352941,
,,,,,,a,1,0.897,,,,,,,,,0.897,1,0,1,1,6,1,stimuli/blank.png,euch,a,UE06UR,2023-08-13_23h06.25.538,openIAT,2023.1.3,MacIntel,58.82352941,
,,,,,,l,0,1.145,,,,,,,,,1.145,0,0,2,2,18,1,stimuli/blank.png,human,a,UE06UR,2023-08-13_23h06.25.538,openIAT,2023.1.3,MacIntel,58.82352941,
,,,,,,l,0,1.32,,,,,,,,,1.32,0,0,3,3,16,1,stimuli/blank.png,begabt,a,UE06UR,2023-08-13_23h06.25.538,openIAT,2023.1.3,MacIntel,58.82352941,
,,,,,,l,1,1.75,,,,,,,,,1.75,1,0,4,4,19,1,stimuli/blank.png,lustlos,l,UE06UR,2023-08-13_23h06.25.538,openIAT,2023.1.3,MacIntel,58.82352941,
,,,,,,l,1,1.045,,,,,,,,,1.045,1,0,5,5,11,1,stimuli/blank.png,brutal,l,UE06UR,2023-08-13_23h06.25.538,openIAT,2023.1.3,MacIntel,58.82352941,
,,,,,,l,1,0.895,,,,,,,,,0.895,1,0,6,6,7,1,stimuli/blank.png,eigene,l,UE06UR,2023-08-13_23h06.25.538,openIAT,2023.1.3,MacIntel,58.82352941,
,,,,,,l,0,0.869,,,,,,,,,0.869,0,0,7,7,14,1,stimuli/blank.png,gerecht,a,UE06UR,2023-08-13_23h06.25.538,openIAT,2023.1.3,MacIntel,58.82352941,
,,,,,,a,1,1.679,,,,,,,,,1.679,1,0,8,8,4,1,stimuli/blank.png,jene,a,UE06UR,2023-08-13_23h06.25.538,openIAT,2023.1.3,MacIntel,58.82352941,
,,,,,,l,1,1.963,,,,,,,,,1.963,1,0,9,9,17,1,stimuli/blank.png,eitel,l,UE06UR,2023-08-13_23h06.25.538,openIAT,2023.1.3,MacIntel,58.82352941,
,,,,,,a,1,0.963,,,,,,,,,0.963,1,0,10,10,8,1,stimuli/blank.png,eure,a,UE06UR,2023-08-13_23h06.25.538,openIAT,2023.1.3,MacIntel,58.82352941,
,,,,,,l,1,1.063,,,,,,,,,1.063,1,0,11,11,5,1,stimuli/blank.png,meine,l,UE06UR,2023-08-13_23h06.25.538,openIAT,2023.1.3,MacIntel,58.82352941,
,,,,,,a,1,0.946,,,,,,,,,0.946,1,0,12,12,0,1,stimuli/blank.png,andere,a,UE06UR,2023-08-13_23h06.25.538,openIAT,2023.1.3,MacIntel,58.82352941,
,,,,,,a,1,1.679,,,,,,,,,1.679,1,0,13,13,10,1,stimuli/blank.png,aktiv,a,UE06UR,2023-08-13_23h06.25.538,openIAT,2023.1.3,MacIntel,58.82352941,
,,,,,,l,1,2.714,,,,,,,,,2.714,1,0,14,14,3,1,stimuli/blank.png,mir,l,UE06UR,2023-08-13_23h06.25.538,openIAT,2023.1.3,MacIntel,58.82352941,
,,,,,,l,1,1.346,,,,,,,,,1.346,1,0,15,15,15,1,stimuli/blank.png,träge,l,UE06UR,2023-08-13_23h06.25.538,openIAT,2023.1.3,MacIntel,58.82352941,
,,,,,,l,1,0.665,,,,,,,,,0.665,1,0,16,16,13,1,stimuli/blank.png,verlogen,l,UE06UR,2023-08-13_23h06.25.538,openIAT,2023.1.3,MacIntel,58.82352941,
,,,,,,l,1,0.562,,,,,,,,,0.562,1,0,17,17,1,1,stimuli/blank.png,ich,l,UE06UR,2023-08-13_23h06.25.538,openIAT,2023.1.3,MacIntel,58.82352941,
,,,,,,l,1,0.529,,,,,,,,,0.529,1,0,18,18,9,1,stimuli/blank.png,selbst,l,UE06UR,2023-08-13_23h06.25.538,openIAT,2023.1.3,MacIntel,58.82352941,
,,,,,,a,1,0.946,,,,,,,,,0.946,1,0,19,19,2,1,stimuli/blank.png,ihr,a,UE06UR,2023-08-13_23h06.25.538,openIAT,2023.1.3,MacIntel,58.82352941,
,,,,,,l,1,0.862,,,,,,,,,0.862,1,0,0,0,11,1,stimuli/blank.png,brutal,l,UE06UR,2023-08-13_23h06.25.538,openIAT,2023.1.3,MacIntel,58.82352941,
,,,,,,a,1,0.748,,,,,,,,,0.748,1,0,1,1,36,1,stimuli/blank.png,begabt,a,UE06UR,2023-08-13_23h06.25.538,openIAT,2023.1.3,MacIntel,58.82352941,
,,,,,,l,1,0.744,,,,,,,,,0.744,1,0,2,2,13,1,stimuli/blank.png,verlogen,l,UE06UR,2023-08-13_23h06.25.538,openIAT,2023.1.3,MacIntel,58.82352941,
,,,,,,l,1,0.878,,,,,,,,,0.878,1,0,3,3,25,1,stimuli/blank.png,meine,l,UE06UR,2023-08-13_23h06.25.538,openIAT,2023.1.3,MacIntel,58.82352941,
,,,,,,a,1,1.496,,,,,,,,,1.496,1,0,4,4,18,1,stimuli/blank.png,human,a,UE06UR,2023-08-13_23h06.25.538,openIAT,2023.1.3,MacIntel,58.82352941,
,,,,,,a,1,0.619,,,,,,,,,0.619,1,0,5,5,38,1,stimuli/blank.png,human,a,UE06UR,2023-08-13_23h06.25.538,openIAT,2023.1.3,MacIntel,58.82352941,
,,,,,,a,1,0.695,,,,,,,,,0.695,1,0,6,6,10,1,stimuli/blank.png,aktiv,a,UE06UR,2023-08-13_23h06.25.538,openIAT,2023.1.3,MacIntel,58.82352941,
,,,,,,a,1,0.578,,,,,,,,,0.578,1,0,7,7,0,1,stimuli/blank.png,andere,a,UE06UR,2023-08-13_23h06.25.538,openIAT,2023.1.3,MacIntel,58.82352941,
,,,,,,l,1,0.679,,,,,,,,,0.679,1,0,8,8,27,1,stimuli/blank.png,eigene,l,UE06UR,2023-08-13_23h06.25.538,openIAT,2023.1.3,MacIntel,58.82352941,
,,,,,,l,1,1.35,,,,,,,,,1.35,1,0,9,9,17,1,stimuli/blank.png,eitel,l,UE06UR,2023-08-13_23h06.25.538,openIAT,2023.1.3,MacIntel,58.82352941,
,,,,,,l,1,0.912,,,,,,,,,0.912,1,0,10,10,23,1,stimuli/blank.png,mir,l,UE06UR,2023-08-13_23h06.25.538,openIAT,2023.1.3,MacIntel,58.82352941,
,,,,,,l,1,0.579,,,,,,,,,0.579,1,0,11,11,5,1,stimuli/blank.png,meine,l,UE06UR,2023-08-13_23h06.25.538,openIAT,2023.1.3,MacIntel,58.82352941,
,,,,,,l,1,1.111,,,,,,,,,1.111,1,0,12,12,7,1,stimuli/blank.png,eigene,l,UE06UR,2023-08-13_23h06.25.538,openIAT,2023.1.3,MacIntel,58.82352941,
,,,,,,a,1,0.712,,,,,,,,,0.712,1,0,13,13,20,1,stimuli/blank.png,andere,a,UE06UR,2023-08-13_23h06.25.538,openIAT,2023.1.3,MacIntel,58.82352941,
,,,,,,a,1,1.267,,,,,,,,,1.267,1,0,14,14,22,1,stimuli/blank.png,ihr,a,UE06UR,2023-08-13_23h06.25.538,openIAT,2023.1.3,MacIntel,58.82352941,
,,,,,,a,1,1.18,,,,,,,,,1.18,1,0,15,15,16,1,stimuli/blank.png,begabt,a,UE06UR,2023-08-13_23h06.25.538,openIAT,2023.1.3,MacIntel,58.82352941,
,,,,,,l,1,0.737,,,,,,,,,0.737,1,0,16,16,3,1,stimuli/blank.png,mir,l,UE06UR,2023-08-13_23h06.25.538,openIAT,2023.1.3,MacIntel,58.82352941,
,,,,,,a,1,0.963,,,,,,,,,0.963,1,0,17,17,28,1,stimuli/blank.png,eure,a,UE06UR,2023-08-13_23h06.25.538,openIAT,2023.1.3,MacIntel,58.82352941,
,,,,,,a,1,1.678,,,,,,,,,1.678,1,0,18,18,32,1,stimuli/blank.png,fröhlich,a,UE06UR,2023-08-13_23h06.25.538,openIAT,2023.1.3,MacIntel,58.82352941,
,,,,,,l,1,0.995,,,,,,,,,0.995,1,0,19,19,33,1,stimuli/blank.png,verlogen,l,UE06UR,2023-08-13_23h06.25.538,openIAT,2023.1.3,MacIntel,58.82352941,
,,,,,,a,1,0.896,,,,,,,,,0.896,1,0,20,20,8,1,stimuli/blank.png,eure,a,UE06UR,2023-08-13_23h06.25.538,openIAT,2023.1.3,MacIntel,58.82352941,
,,,,,,a,1,0.647,,,,,,,,,0.647,1,0,21,21,2,1,stimuli/blank.png,ihr,a,UE06UR,2023-08-13_23h06.25.538,openIAT,2023.1.3,MacIntel,58.82352941,
,,,,,,l,1,1.47,,,,,,,,,1.47,1,0,22,22,37,1,stimuli/blank.png,eitel,l,UE06UR,2023-08-13_23h06.25.538,openIAT,2023.1.3,MacIntel,58.82352941,
,,,,,,l,1,0.712,,,,,,,,,0.712,1,0,23,23,29,1,stimuli/blank.png,selbst,l,UE06UR,2023-08-13_23h06.25.538,openIAT,2023.1.3,MacIntel,58.82352941,
,,,,,,a,1,0.812,,,,,,,,,0.812,1,0,24,24,4,1,stimuli/blank.png,jene,a,UE06UR,2023-08-13_23h06.25.538,openIAT,2023.1.3,MacIntel,58.82352941,
,,,,,,a,1,1.129,,,,,,,,,1.129,1,0,25,25,12,1,stimuli/blank.png,fröhlich,a,UE06UR,2023-08-13_23h06.25.538,openIAT,2023.1.3,MacIntel,58.82352941,
,,,,,,l,1,0.762,,,,,,,,,0.762,1,0,26,26,21,1,stimuli/blank.png,ich,l,UE06UR,2023-08-13_23h06.25.538,openIAT,2023.1.3,MacIntel,58.82352941,
,,,,,,a,1,0.611,,,,,,,,,0.611,1,0,27,27,24,1,stimuli/blank.png,jene,a,UE06UR,2023-08-13_23h06.25.538,openIAT,2023.1.3,MacIntel,58.82352941,
,,,,,,a,1,0.63,,,,,,,,,0.63,1,0,28,28,26,1,stimuli/blank.png,euch,a,UE06UR,2023-08-13_23h06.25.538,openIAT,2023.1.3,MacIntel,58.82352941,
,,,,,,a,1,0.586,,,,,,,,,0.586,1,0,29,29,6,1,stimuli/blank.png,euch,a,UE06UR,2023-08-13_23h06.25.538,openIAT,2023.1.3,MacIntel,58.82352941,
,,,,,,a,0,0.728,,,,,,,,,0.728,0,0,30,30,35,1,stimuli/blank.png,träge,l,UE06UR,2023-08-13_23h06.25.538,openIAT,2023.1.3,MacIntel,58.82352941,
,,,,,,l,1,0.978,,,,,,,,,0.978,1,0,31,31,1,1,stimuli/blank.png,ich,l,UE06UR,2023-08-13_23h06.25.538,openIAT,2023.1.3,MacIntel,58.82352941,
,,,,,,a,1,1.212,,,,,,,,,1.212,1,0,32,32,34,1,stimuli/blank.png,gerecht,a,UE06UR,2023-08-13_23h06.25.538,openIAT,2023.1.3,MacIntel,58.82352941,
,,,,,,a,1,0.55,,,,,,,,,0.55,1,0,33,33,14,1,stimuli/blank.png,gerecht,a,UE06UR,2023-08-13_23h06.25.538,openIAT,2023.1.3,MacIntel,58.82352941,
,,,,,,l,1,0.813,,,,,,,,,0.813,1,0,34,34,39,1,stimuli/blank.png,lustlos,l,UE06UR,2023-08-13_23h06.25.538,openIAT,2023.1.3,MacIntel,58.82352941,
,,,,,,l,1,0.669,,,,,,,,,0.669,1,0,35,35,15,1,stimuli/blank.png,träge,l,UE06UR,2023-08-13_23h06.25.538,openIAT,2023.1.3,MacIntel,58.82352941,
,,,,,,l,1,0.68,,,,,,,,,0.68,1,0,36,36,9,1,stimuli/blank.png,selbst,l,UE06UR,2023-08-13_23h06.25.538,openIAT,2023.1.3,MacIntel,58.82352941,
,,,,,,l,1,1.463,,,,,,,,,1.463,1,0,37,37,31,1,stimuli/blank.png,brutal,l,UE06UR,2023-08-13_23h06.25.538,openIAT,2023.1.3,MacIntel,58.82352941,
,,,,,,l,1,0.729,,,,,,,,,0.729,1,0,38,38,19,1,stimuli/blank.png,lustlos,l,UE06UR,2023-08-13_23h06.25.538,openIAT,2023.1.3,MacIntel,58.82352941,
,,,,,,a,1,0.534,,,,,,,,,0.534,1,0,39,39,30,1,stimuli/blank.png,aktiv,a,UE06UR,2023-08-13_23h06.25.538,openIAT,2023.1.3,MacIntel,58.82352941,
,,,,,,,,,,,,,,,,,,,,,,,,,,,UE06UR,2023-08-13_23h06.25.538,openIAT,2023.1.3,MacIntel,58.82352941,
