instr_done_touch.x,instr_done_touch.y,instr_done_touch.leftButton,instr_done_touch.midButton,instr_done_touch.rightButton,instr_done_touch.clicked_name,key_resp.keys,key_resp.corr,key_resp.rt,key_resp.duration,touch_resp.x,touch_resp.y,touch_resp.leftButton,touch_resp.midButton,touch_resp.rightButton,touch_resp.time,touch_resp.clicked_name,rt,corr,trials.thisRepN,trials.thisTrialN,trials.thisN,trials.thisIndex,trials.ran,stimImage,stimWord,CorrAns,participant,date,expName,psychopyVersion,OS,frameRate,return_tic
0.07127193,-0.408442982,1,0,0,instr_done_button,l,1,1.6679,,,,,,,,,1.6679,1,0,0,0,13,1,stimuli/blank.png,verlogen,l,WL03LD,2023-08-19_12h29.33.306,openIAT,2023.1.3,Win32,58.53772757,
,,,,,,a,1,1.5008,,,,,,,,,1.5008,1,0,1,1,18,1,stimuli/blank.png,human,a,WL03LD,2023-08-19_12h29.33.306,openIAT,2023.1.3,Win32,58.53772757,
,,,,,,l,1,1.1683,,,,,,,,,1.1683,1,0,2,2,17,1,stimuli/blank.png,eitel,l,WL03LD,2023-08-19_12h29.33.306,openIAT,2023.1.3,Win32,58.53772757,
,,,,,,l,1,1.4545,,,,,,,,,1.4545,1,0,3,3,9,1,stimuli/blank.png,lustlos,l,WL03LD,2023-08-19_12h29.33.306,openIAT,2023.1.3,Win32,58.53772757,
,,,,,,l,1,0.6514,,,,,,,,,0.6514,1,0,4,4,19,1,stimuli/blank.png,lustlos,l,WL03LD,2023-08-19_12h29.33.306,openIAT,2023.1.3,Win32,58.53772757,
,,,,,,a,1,1.2184,,,,,,,,,1.2184,1,0,5,5,16,1,stimuli/blank.png,begabt,a,WL03LD,2023-08-19_12h29.33.306,openIAT,2023.1.3,Win32,58.53772757,
,,,,,,a,1,1.1867,,,,,,,,,1.1867,1,0,6,6,14,1,stimuli/blank.png,gerecht,a,WL03LD,2023-08-19_12h29.33.306,openIAT,2023.1.3,Win32,58.53772757,
,,,,,,l,1,0.9679,,,,,,,,,0.9679,1,0,7,7,1,1,stimuli/blank.png,brutal,l,WL03LD,2023-08-19_12h29.33.306,openIAT,2023.1.3,Win32,58.53772757,
,,,,,,a,1,0.9178,,,,,,,,,0.9178,1,0,8,8,2,1,stimuli/blank.png,fröhlich,a,WL03LD,2023-08-19_12h29.33.306,openIAT,2023.1.3,Win32,58.53772757,
,,,,,,a,1,0.9838,,,,,,,,,0.9838,1,0,9,9,10,1,stimuli/blank.png,aktiv,a,WL03LD,2023-08-19_12h29.33.306,openIAT,2023.1.3,Win32,58.53772757,
,,,,,,l,1,0.971,,,,,,,,,0.971,1,0,10,10,15,1,stimuli/blank.png,träge,l,WL03LD,2023-08-19_12h29.33.306,openIAT,2023.1.3,Win32,58.53772757,
,,,,,,a,1,1.0178,,,,,,,,,1.0178,1,0,11,11,6,1,stimuli/blank.png,begabt,a,WL03LD,2023-08-19_12h29.33.306,openIAT,2023.1.3,Win32,58.53772757,
,,,,,,a,1,0.8639,,,,,,,,,0.8639,1,0,12,12,12,1,stimuli/blank.png,fröhlich,a,WL03LD,2023-08-19_12h29.33.306,openIAT,2023.1.3,Win32,58.53772757,
,,,,,,l,1,1.4177,,,,,,,,,1.4177,1,0,13,13,5,1,stimuli/blank.png,träge,l,WL03LD,2023-08-19_12h29.33.306,openIAT,2023.1.3,Win32,58.53772757,
,,,,,,l,1,1.5513,,,,,,,,,1.5513,1,0,14,14,11,1,stimuli/blank.png,brutal,l,WL03LD,2023-08-19_12h29.33.306,openIAT,2023.1.3,Win32,58.53772757,
,,,,,,a,1,0.9843,,,,,,,,,0.9843,1,0,15,15,8,1,stimuli/blank.png,human,a,WL03LD,2023-08-19_12h29.33.306,openIAT,2023.1.3,Win32,58.53772757,
,,,,,,l,1,0.9674,,,,,,,,,0.9674,1,0,16,16,7,1,stimuli/blank.png,eitel,l,WL03LD,2023-08-19_12h29.33.306,openIAT,2023.1.3,Win32,58.53772757,
,,,,,,a,1,0.9349,,,,,,,,,0.9349,1,0,17,17,4,1,stimuli/blank.png,gerecht,a,WL03LD,2023-08-19_12h29.33.306,openIAT,2023.1.3,Win32,58.53772757,
,,,,,,a,1,0.8838,,,,,,,,,0.8838,1,0,18,18,0,1,stimuli/blank.png,aktiv,a,WL03LD,2023-08-19_12h29.33.306,openIAT,2023.1.3,Win32,58.53772757,
,,,,,,l,1,0.7701,,,,,,,,,0.7701,1,0,19,19,3,1,stimuli/blank.png,verlogen,l,WL03LD,2023-08-19_12h29.33.306,openIAT,2023.1.3,Win32,58.53772757,
,,,,,,a,1,1.345,,,,,,,,,1.345,1,0,0,0,1,1,stimuli/blank.png,ich,a,WL03LD,2023-08-19_12h29.33.306,openIAT,2023.1.3,Win32,58.53772757,
,,,,,,l,1,1.0677,,,,,,,,,1.0677,1,0,1,1,16,1,stimuli/blank.png,euch,l,WL03LD,2023-08-19_12h29.33.306,openIAT,2023.1.3,Win32,58.53772757,
,,,,,,a,1,0.9178,,,,,,,,,0.9178,1,0,2,2,19,1,stimuli/blank.png,selbst,a,WL03LD,2023-08-19_12h29.33.306,openIAT,2023.1.3,Win32,58.53772757,
,,,,,,l,1,0.7694,,,,,,,,,0.7694,1,0,3,3,18,1,stimuli/blank.png,eure,l,WL03LD,2023-08-19_12h29.33.306,openIAT,2023.1.3,Win32,58.53772757,
,,,,,,l,1,0.8851,,,,,,,,,0.8851,1,0,4,4,8,1,stimuli/blank.png,eure,l,WL03LD,2023-08-19_12h29.33.306,openIAT,2023.1.3,Win32,58.53772757,
,,,,,,a,1,0.8681,,,,,,,,,0.8681,1,0,5,5,13,1,stimuli/blank.png,mir,a,WL03LD,2023-08-19_12h29.33.306,openIAT,2023.1.3,Win32,58.53772757,
,,,,,,l,1,0.7164,,,,,,,,,0.7164,1,0,6,6,10,1,stimuli/blank.png,andere,l,WL03LD,2023-08-19_12h29.33.306,openIAT,2023.1.3,Win32,58.53772757,
,,,,,,a,0,0.6181,,,,,,,,,0.6181,0,0,7,7,12,1,stimuli/blank.png,ihr,l,WL03LD,2023-08-19_12h29.33.306,openIAT,2023.1.3,Win32,58.53772757,
,,,,,,l,1,1.3678,,,,,,,,,1.3678,1,0,8,8,6,1,stimuli/blank.png,euch,l,WL03LD,2023-08-19_12h29.33.306,openIAT,2023.1.3,Win32,58.53772757,
,,,,,,a,1,0.8344,,,,,,,,,0.8344,1,0,9,9,9,1,stimuli/blank.png,selbst,a,WL03LD,2023-08-19_12h29.33.306,openIAT,2023.1.3,Win32,58.53772757,
,,,,,,a,1,1.6516,,,,,,,,,1.6516,1,0,10,10,17,1,stimuli/blank.png,eigene,a,WL03LD,2023-08-19_12h29.33.306,openIAT,2023.1.3,Win32,58.53772757,
,,,,,,a,1,1.1349,,,,,,,,,1.1349,1,0,11,11,3,1,stimuli/blank.png,mir,a,WL03LD,2023-08-19_12h29.33.306,openIAT,2023.1.3,Win32,58.53772757,
,,,,,,l,1,0.8171,,,,,,,,,0.8171,1,0,12,12,14,1,stimuli/blank.png,jene,l,WL03LD,2023-08-19_12h29.33.306,openIAT,2023.1.3,Win32,58.53772757,
,,,,,,a,1,0.8849,,,,,,,,,0.8849,1,0,13,13,7,1,stimuli/blank.png,eigene,a,WL03LD,2023-08-19_12h29.33.306,openIAT,2023.1.3,Win32,58.53772757,
,,,,,,l,1,0.7674,,,,,,,,,0.7674,1,0,14,14,0,1,stimuli/blank.png,andere,l,WL03LD,2023-08-19_12h29.33.306,openIAT,2023.1.3,Win32,58.53772757,
,,,,,,a,1,0.9089,,,,,,,,,0.9089,1,0,15,15,15,1,stimuli/blank.png,meine,a,WL03LD,2023-08-19_12h29.33.306,openIAT,2023.1.3,Win32,58.53772757,
,,,,,,a,1,0.7873,,,,,,,,,0.7873,1,0,16,16,5,1,stimuli/blank.png,meine,a,WL03LD,2023-08-19_12h29.33.306,openIAT,2023.1.3,Win32,58.53772757,
,,,,,,l,1,0.7843,,,,,,,,,0.7843,1,0,17,17,2,1,stimuli/blank.png,ihr,l,WL03LD,2023-08-19_12h29.33.306,openIAT,2023.1.3,Win32,58.53772757,
,,,,,,a,1,0.584,,,,,,,,,0.584,1,0,18,18,11,1,stimuli/blank.png,ich,a,WL03LD,2023-08-19_12h29.33.306,openIAT,2023.1.3,Win32,58.53772757,
,,,,,,l,1,0.6845,,,,,,,,,0.6845,1,0,19,19,4,1,stimuli/blank.png,jene,l,WL03LD,2023-08-19_12h29.33.306,openIAT,2023.1.3,Win32,58.53772757,
,,,,,,a,1,0.6715,,,,,,,,,0.6715,1,0,0,0,5,1,stimuli/blank.png,meine,a,WL03LD,2023-08-19_12h29.33.306,openIAT,2023.1.3,Win32,58.53772757,
,,,,,,a,1,0.6335,,,,,,,,,0.6335,1,0,1,1,7,1,stimuli/blank.png,eigene,a,WL03LD,2023-08-19_12h29.33.306,openIAT,2023.1.3,Win32,58.53772757,
,,,,,,l,1,0.8002,,,,,,,,,0.8002,1,0,2,2,13,1,stimuli/blank.png,verlogen,l,WL03LD,2023-08-19_12h29.33.306,openIAT,2023.1.3,Win32,58.53772757,
,,,,,,a,1,0.6504,,,,,,,,,0.6504,1,0,3,3,14,1,stimuli/blank.png,gerecht,a,WL03LD,2023-08-19_12h29.33.306,openIAT,2023.1.3,Win32,58.53772757,
,,,,,,l,1,0.7745,,,,,,,,,0.7745,1,0,4,4,19,1,stimuli/blank.png,lustlos,l,WL03LD,2023-08-19_12h29.33.306,openIAT,2023.1.3,Win32,58.53772757,
,,,,,,l,1,1.3009,,,,,,,,,1.3009,1,0,5,5,17,1,stimuli/blank.png,eitel,l,WL03LD,2023-08-19_12h29.33.306,openIAT,2023.1.3,Win32,58.53772757,
,,,,,,a,1,0.8169,,,,,,,,,0.8169,1,0,6,6,16,1,stimuli/blank.png,begabt,a,WL03LD,2023-08-19_12h29.33.306,openIAT,2023.1.3,Win32,58.53772757,
,,,,,,l,1,0.8676,,,,,,,,,0.8676,1,0,7,7,2,1,stimuli/blank.png,ihr,l,WL03LD,2023-08-19_12h29.33.306,openIAT,2023.1.3,Win32,58.53772757,
,,,,,,l,1,0.6835,,,,,,,,,0.6835,1,0,8,8,6,1,stimuli/blank.png,euch,l,WL03LD,2023-08-19_12h29.33.306,openIAT,2023.1.3,Win32,58.53772757,
,,,,,,a,1,0.7844,,,,,,,,,0.7844,1,0,9,9,3,1,stimuli/blank.png,mir,a,WL03LD,2023-08-19_12h29.33.306,openIAT,2023.1.3,Win32,58.53772757,
,,,,,,l,1,0.6688,,,,,,,,,0.6688,1,0,10,10,4,1,stimuli/blank.png,jene,l,WL03LD,2023-08-19_12h29.33.306,openIAT,2023.1.3,Win32,58.53772757,
,,,,,,a,1,0.7177,,,,,,,,,0.7177,1,0,11,11,18,1,stimuli/blank.png,human,a,WL03LD,2023-08-19_12h29.33.306,openIAT,2023.1.3,Win32,58.53772757,
,,,,,,l,1,0.7007,,,,,,,,,0.7007,1,0,12,12,0,1,stimuli/blank.png,andere,l,WL03LD,2023-08-19_12h29.33.306,openIAT,2023.1.3,Win32,58.53772757,
,,,,,,a,1,0.6367,,,,,,,,,0.6367,1,0,13,13,1,1,stimuli/blank.png,ich,a,WL03LD,2023-08-19_12h29.33.306,openIAT,2023.1.3,Win32,58.53772757,
,,,,,,l,0,0.5221,,,,,,,,,0.5221,0,0,14,14,9,1,stimuli/blank.png,selbst,a,WL03LD,2023-08-19_12h29.33.306,openIAT,2023.1.3,Win32,58.53772757,
,,,,,,l,1,0.8509,,,,,,,,,0.8509,1,0,15,15,15,1,stimuli/blank.png,träge,l,WL03LD,2023-08-19_12h29.33.306,openIAT,2023.1.3,Win32,58.53772757,
,,,,,,a,1,0.8508,,,,,,,,,0.8508,1,0,16,16,12,1,stimuli/blank.png,fröhlich,a,WL03LD,2023-08-19_12h29.33.306,openIAT,2023.1.3,Win32,58.53772757,
,,,,,,l,1,0.8177,,,,,,,,,0.8177,1,0,17,17,8,1,stimuli/blank.png,eure,l,WL03LD,2023-08-19_12h29.33.306,openIAT,2023.1.3,Win32,58.53772757,
,,,,,,l,1,0.5702,,,,,,,,,0.5702,1,0,18,18,11,1,stimuli/blank.png,brutal,l,WL03LD,2023-08-19_12h29.33.306,openIAT,2023.1.3,Win32,58.53772757,
,,,,,,a,1,0.7993,,,,,,,,,0.7993,1,0,19,19,10,1,stimuli/blank.png,aktiv,a,WL03LD,2023-08-19_12h29.33.306,openIAT,2023.1.3,Win32,58.53772757,
,,,,,,l,1,0.8685,,,,,,,,,0.8685,1,0,0,0,31,1,stimuli/blank.png,brutal,l,WL03LD,2023-08-19_12h29.33.306,openIAT,2023.1.3,Win32,58.53772757,
,,,,,,l,1,0.7518,,,,,,,,,0.7518,1,0,1,1,22,1,stimuli/blank.png,ihr,l,WL03LD,2023-08-19_12h29.33.306,openIAT,2023.1.3,Win32,58.53772757,
,,,,,,l,1,0.5339,,,,,,,,,0.5339,1,0,2,2,13,1,stimuli/blank.png,verlogen,l,WL03LD,2023-08-19_12h29.33.306,openIAT,2023.1.3,Win32,58.53772757,
,,,,,,l,1,0.6014,,,,,,,,,0.6014,1,0,3,3,20,1,stimuli/blank.png,andere,l,WL03LD,2023-08-19_12h29.33.306,openIAT,2023.1.3,Win32,58.53772757,
,,,,,,l,1,0.6167,,,,,,,,,0.6167,1,0,4,4,6,1,stimuli/blank.png,euch,l,WL03LD,2023-08-19_12h29.33.306,openIAT,2023.1.3,Win32,58.53772757,
,,,,,,a,1,0.7002,,,,,,,,,0.7002,1,0,5,5,7,1,stimuli/blank.png,eigene,a,WL03LD,2023-08-19_12h29.33.306,openIAT,2023.1.3,Win32,58.53772757,
,,,,,,a,1,0.7513,,,,,,,,,0.7513,1,0,6,6,16,1,stimuli/blank.png,begabt,a,WL03LD,2023-08-19_12h29.33.306,openIAT,2023.1.3,Win32,58.53772757,
,,,,,,l,1,0.6667,,,,,,,,,0.6667,1,0,7,7,11,1,stimuli/blank.png,brutal,l,WL03LD,2023-08-19_12h29.33.306,openIAT,2023.1.3,Win32,58.53772757,
,,,,,,a,1,0.9176,,,,,,,,,0.9176,1,0,8,8,29,1,stimuli/blank.png,selbst,a,WL03LD,2023-08-19_12h29.33.306,openIAT,2023.1.3,Win32,58.53772757,
,,,,,,a,1,0.834,,,,,,,,,0.834,1,0,9,9,5,1,stimuli/blank.png,meine,a,WL03LD,2023-08-19_12h29.33.306,openIAT,2023.1.3,Win32,58.53772757,
,,,,,,a,1,0.8676,,,,,,,,,0.8676,1,0,10,10,34,1,stimuli/blank.png,gerecht,a,WL03LD,2023-08-19_12h29.33.306,openIAT,2023.1.3,Win32,58.53772757,
,,,,,,a,1,0.5673,,,,,,,,,0.5673,1,0,11,11,18,1,stimuli/blank.png,human,a,WL03LD,2023-08-19_12h29.33.306,openIAT,2023.1.3,Win32,58.53772757,
,,,,,,a,1,0.623,,,,,,,,,0.623,1,0,12,12,36,1,stimuli/blank.png,begabt,a,WL03LD,2023-08-19_12h29.33.306,openIAT,2023.1.3,Win32,58.53772757,
,,,,,,a,0,0.5015,,,,,,,,,0.5015,0,0,13,13,28,1,stimuli/blank.png,eure,l,WL03LD,2023-08-19_12h29.33.306,openIAT,2023.1.3,Win32,58.53772757,
,,,,,,l,1,0.7507,,,,,,,,,0.7507,1,0,14,14,4,1,stimuli/blank.png,jene,l,WL03LD,2023-08-19_12h29.33.306,openIAT,2023.1.3,Win32,58.53772757,
,,,,,,l,1,0.6052,,,,,,,,,0.6052,1,0,15,15,37,1,stimuli/blank.png,eitel,l,WL03LD,2023-08-19_12h29.33.306,openIAT,2023.1.3,Win32,58.53772757,
,,,,,,a,0,0.6845,,,,,,,,,0.6845,0,0,16,16,26,1,stimuli/blank.png,euch,l,WL03LD,2023-08-19_12h29.33.306,openIAT,2023.1.3,Win32,58.53772757,
,,,,,,a,1,1.4019,,,,,,,,,1.4019,1,0,17,17,30,1,stimuli/blank.png,aktiv,a,WL03LD,2023-08-19_12h29.33.306,openIAT,2023.1.3,Win32,58.53772757,
,,,,,,a,1,0.7667,,,,,,,,,0.7667,1,0,18,18,25,1,stimuli/blank.png,meine,a,WL03LD,2023-08-19_12h29.33.306,openIAT,2023.1.3,Win32,58.53772757,
,,,,,,a,1,0.5862,,,,,,,,,0.5862,1,0,19,19,27,1,stimuli/blank.png,eigene,a,WL03LD,2023-08-19_12h29.33.306,openIAT,2023.1.3,Win32,58.53772757,
,,,,,,a,1,0.6676,,,,,,,,,0.6676,1,0,20,20,9,1,stimuli/blank.png,selbst,a,WL03LD,2023-08-19_12h29.33.306,openIAT,2023.1.3,Win32,58.53772757,
,,,,,,l,1,0.8179,,,,,,,,,0.8179,1,0,21,21,19,1,stimuli/blank.png,lustlos,l,WL03LD,2023-08-19_12h29.33.306,openIAT,2023.1.3,Win32,58.53772757,
,,,,,,a,1,1.0094,,,,,,,,,1.0094,1,0,22,22,3,1,stimuli/blank.png,mir,a,WL03LD,2023-08-19_12h29.33.306,openIAT,2023.1.3,Win32,58.53772757,
,,,,,,a,1,0.8676,,,,,,,,,0.8676,1,0,23,23,38,1,stimuli/blank.png,human,a,WL03LD,2023-08-19_12h29.33.306,openIAT,2023.1.3,Win32,58.53772757,
,,,,,,a,1,0.6013,,,,,,,,,0.6013,1,0,24,24,14,1,stimuli/blank.png,gerecht,a,WL03LD,2023-08-19_12h29.33.306,openIAT,2023.1.3,Win32,58.53772757,
,,,,,,a,1,0.8037,,,,,,,,,0.8037,1,0,25,25,10,1,stimuli/blank.png,aktiv,a,WL03LD,2023-08-19_12h29.33.306,openIAT,2023.1.3,Win32,58.53772757,
,,,,,,l,1,0.8348,,,,,,,,,0.8348,1,0,26,26,2,1,stimuli/blank.png,ihr,l,WL03LD,2023-08-19_12h29.33.306,openIAT,2023.1.3,Win32,58.53772757,
,,,,,,a,1,0.8678,,,,,,,,,0.8678,1,0,27,27,23,1,stimuli/blank.png,mir,a,WL03LD,2023-08-19_12h29.33.306,openIAT,2023.1.3,Win32,58.53772757,
,,,,,,a,1,0.5014,,,,,,,,,0.5014,1,0,28,28,12,1,stimuli/blank.png,fröhlich,a,WL03LD,2023-08-19_12h29.33.306,openIAT,2023.1.3,Win32,58.53772757,
,,,,,,l,1,0.9176,,,,,,,,,0.9176,1,0,29,29,39,1,stimuli/blank.png,lustlos,l,WL03LD,2023-08-19_12h29.33.306,openIAT,2023.1.3,Win32,58.53772757,
,,,,,,l,1,1.5515,,,,,,,,,1.5515,1,0,30,30,15,1,stimuli/blank.png,träge,l,WL03LD,2023-08-19_12h29.33.306,openIAT,2023.1.3,Win32,58.53772757,
,,,,,,a,1,0.4847,,,,,,,,,0.4847,1,0,31,31,1,1,stimuli/blank.png,ich,a,WL03LD,2023-08-19_12h29.33.306,openIAT,2023.1.3,Win32,58.53772757,
,,,,,,l,1,0.768,,,,,,,,,0.768,1,0,32,32,0,1,stimuli/blank.png,andere,l,WL03LD,2023-08-19_12h29.33.306,openIAT,2023.1.3,Win32,58.53772757,
,,,,,,l,1,0.585,,,,,,,,,0.585,1,0,33,33,24,1,stimuli/blank.png,jene,l,WL03LD,2023-08-19_12h29.33.306,openIAT,2023.1.3,Win32,58.53772757,
,,,,,,l,1,0.8674,,,,,,,,,0.8674,1,0,34,34,8,1,stimuli/blank.png,eure,l,WL03LD,2023-08-19_12h29.33.306,openIAT,2023.1.3,Win32,58.53772757,
,,,,,,a,1,0.5846,,,,,,,,,0.5846,1,0,35,35,21,1,stimuli/blank.png,ich,a,WL03LD,2023-08-19_12h29.33.306,openIAT,2023.1.3,Win32,58.53772757,
,,,,,,l,1,0.7523,,,,,,,,,0.7523,1,0,36,36,35,1,stimuli/blank.png,träge,l,WL03LD,2023-08-19_12h29.33.306,openIAT,2023.1.3,Win32,58.53772757,
,,,,,,l,1,0.8035,,,,,,,,,0.8035,1,0,37,37,33,1,stimuli/blank.png,verlogen,l,WL03LD,2023-08-19_12h29.33.306,openIAT,2023.1.3,Win32,58.53772757,
,,,,,,a,1,0.6381,,,,,,,,,0.6381,1,0,38,38,32,1,stimuli/blank.png,fröhlich,a,WL03LD,2023-08-19_12h29.33.306,openIAT,2023.1.3,Win32,58.53772757,
,,,,,,l,1,0.6194,,,,,,,,,0.6194,1,0,39,39,17,1,stimuli/blank.png,eitel,l,WL03LD,2023-08-19_12h29.33.306,openIAT,2023.1.3,Win32,58.53772757,
,,,,,,l,1,10.2193,,,,,,,,,10.2193,1,0,0,0,1,1,stimuli/blank.png,ich,l,WL03LD,2023-08-19_12h29.33.306,openIAT,2023.1.3,Win32,58.53772757,
,,,,,,a,1,1.335,,,,,,,,,1.335,1,0,1,1,16,1,stimuli/blank.png,euch,a,WL03LD,2023-08-19_12h29.33.306,openIAT,2023.1.3,Win32,58.53772757,
,,,,,,a,1,1.7183,,,,,,,,,1.7183,1,0,2,2,12,1,stimuli/blank.png,ihr,a,WL03LD,2023-08-19_12h29.33.306,openIAT,2023.1.3,Win32,58.53772757,
,,,,,,a,1,0.7514,,,,,,,,,0.7514,1,0,3,3,4,1,stimuli/blank.png,jene,a,WL03LD,2023-08-19_12h29.33.306,openIAT,2023.1.3,Win32,58.53772757,
,,,,,,l,1,0.7015,,,,,,,,,0.7015,1,0,4,4,11,1,stimuli/blank.png,ich,l,WL03LD,2023-08-19_12h29.33.306,openIAT,2023.1.3,Win32,58.53772757,
,,,,,,a,1,0.5678,,,,,,,,,0.5678,1,0,5,5,14,1,stimuli/blank.png,jene,a,WL03LD,2023-08-19_12h29.33.306,openIAT,2023.1.3,Win32,58.53772757,
,,,,,,l,1,0.851,,,,,,,,,0.851,1,0,6,6,9,1,stimuli/blank.png,selbst,l,WL03LD,2023-08-19_12h29.33.306,openIAT,2023.1.3,Win32,58.53772757,
,,,,,,l,1,1.6012,,,,,,,,,1.6012,1,0,7,7,5,1,stimuli/blank.png,meine,l,WL03LD,2023-08-19_12h29.33.306,openIAT,2023.1.3,Win32,58.53772757,
,,,,,,a,1,1.0873,,,,,,,,,1.0873,1,0,8,8,0,1,stimuli/blank.png,andere,a,WL03LD,2023-08-19_12h29.33.306,openIAT,2023.1.3,Win32,58.53772757,
,,,,,,l,0,1.5685,,,,,,,,,1.5685,0,0,9,9,2,1,stimuli/blank.png,ihr,a,WL03LD,2023-08-19_12h29.33.306,openIAT,2023.1.3,Win32,58.53772757,
,,,,,,a,1,1.2194,,,,,,,,,1.2194,1,0,10,10,8,1,stimuli/blank.png,eure,a,WL03LD,2023-08-19_12h29.33.306,openIAT,2023.1.3,Win32,58.53772757,
,,,,,,l,1,0.8711,,,,,,,,,0.8711,1,0,11,11,7,1,stimuli/blank.png,eigene,l,WL03LD,2023-08-19_12h29.33.306,openIAT,2023.1.3,Win32,58.53772757,
,,,,,,l,1,1.6881,,,,,,,,,1.6881,1,0,12,12,19,1,stimuli/blank.png,selbst,l,WL03LD,2023-08-19_12h29.33.306,openIAT,2023.1.3,Win32,58.53772757,
,,,,,,a,1,0.6344,,,,,,,,,0.6344,1,0,13,13,10,1,stimuli/blank.png,andere,a,WL03LD,2023-08-19_12h29.33.306,openIAT,2023.1.3,Win32,58.53772757,
,,,,,,l,1,0.7384,,,,,,,,,0.7384,1,0,14,14,15,1,stimuli/blank.png,meine,l,WL03LD,2023-08-19_12h29.33.306,openIAT,2023.1.3,Win32,58.53772757,
,,,,,,a,1,1.1516,,,,,,,,,1.1516,1,0,15,15,18,1,stimuli/blank.png,eure,a,WL03LD,2023-08-19_12h29.33.306,openIAT,2023.1.3,Win32,58.53772757,
,,,,,,l,1,0.5515,,,,,,,,,0.5515,1,0,16,16,13,1,stimuli/blank.png,mir,l,WL03LD,2023-08-19_12h29.33.306,openIAT,2023.1.3,Win32,58.53772757,
,,,,,,a,1,0.8681,,,,,,,,,0.8681,1,0,17,17,6,1,stimuli/blank.png,euch,a,WL03LD,2023-08-19_12h29.33.306,openIAT,2023.1.3,Win32,58.53772757,
,,,,,,l,1,0.9264,,,,,,,,,0.9264,1,0,18,18,17,1,stimuli/blank.png,eigene,l,WL03LD,2023-08-19_12h29.33.306,openIAT,2023.1.3,Win32,58.53772757,
,,,,,,l,1,0.5703,,,,,,,,,0.5703,1,0,19,19,3,1,stimuli/blank.png,mir,l,WL03LD,2023-08-19_12h29.33.306,openIAT,2023.1.3,Win32,58.53772757,
,,,,,,l,1,3.8816,,,,,,,,,3.8816,1,0,0,0,19,1,stimuli/blank.png,lustlos,l,WL03LD,2023-08-19_12h29.33.306,openIAT,2023.1.3,Win32,58.53772757,
,,,,,,a,0,1.318,,,,,,,,,1.318,0,0,1,1,3,1,stimuli/blank.png,mir,l,WL03LD,2023-08-19_12h29.33.306,openIAT,2023.1.3,Win32,58.53772757,
,,,,,,a,1,4.8558,,,,,,,,,4.8558,1,0,2,2,0,1,stimuli/blank.png,andere,a,WL03LD,2023-08-19_12h29.33.306,openIAT,2023.1.3,Win32,58.53772757,
,,,,,,a,1,0.768,,,,,,,,,0.768,1,0,3,3,4,1,stimuli/blank.png,jene,a,WL03LD,2023-08-19_12h29.33.306,openIAT,2023.1.3,Win32,58.53772757,
,,,,,,l,1,1.4027,,,,,,,,,1.4027,1,0,4,4,7,1,stimuli/blank.png,eigene,l,WL03LD,2023-08-19_12h29.33.306,openIAT,2023.1.3,Win32,58.53772757,
,,,,,,a,0,0.8508,,,,,,,,,0.8508,0,0,5,5,11,1,stimuli/blank.png,brutal,l,WL03LD,2023-08-19_12h29.33.306,openIAT,2023.1.3,Win32,58.53772757,
,,,,,,l,0,5.6206,,,,,,,,,5.6206,0,0,6,6,16,1,stimuli/blank.png,begabt,a,WL03LD,2023-08-19_12h29.33.306,openIAT,2023.1.3,Win32,58.53772757,
,,,,,,a,1,4.7709,,,,,,,,,4.7709,1,0,7,7,18,1,stimuli/blank.png,human,a,WL03LD,2023-08-19_12h29.33.306,openIAT,2023.1.3,Win32,58.53772757,
,,,,,,l,1,2.4549,,,,,,,,,2.4549,1,0,8,8,1,1,stimuli/blank.png,ich,l,WL03LD,2023-08-19_12h29.33.306,openIAT,2023.1.3,Win32,58.53772757,
,,,,,,a,1,1.2529,,,,,,,,,1.2529,1,0,9,9,2,1,stimuli/blank.png,ihr,a,WL03LD,2023-08-19_12h29.33.306,openIAT,2023.1.3,Win32,58.53772757,
,,,,,,l,1,2.6396,,,,,,,,,2.6396,1,0,10,10,17,1,stimuli/blank.png,eitel,l,WL03LD,2023-08-19_12h29.33.306,openIAT,2023.1.3,Win32,58.53772757,
,,,,,,l,1,1.1846,,,,,,,,,1.1846,1,0,11,11,9,1,stimuli/blank.png,selbst,l,WL03LD,2023-08-19_12h29.33.306,openIAT,2023.1.3,Win32,58.53772757,
,,,,,,a,1,1.6518,,,,,,,,,1.6518,1,0,12,12,10,1,stimuli/blank.png,aktiv,a,WL03LD,2023-08-19_12h29.33.306,openIAT,2023.1.3,Win32,58.53772757,
,,,,,,l,1,1.6216,,,,,,,,,1.6216,1,0,13,13,15,1,stimuli/blank.png,träge,l,WL03LD,2023-08-19_12h29.33.306,openIAT,2023.1.3,Win32,58.53772757,
,,,,,,l,0,1.552,,,,,,,,,1.552,0,0,14,14,14,1,stimuli/blank.png,gerecht,a,WL03LD,2023-08-19_12h29.33.306,openIAT,2023.1.3,Win32,58.53772757,
,,,,,,l,1,2.1566,,,,,,,,,2.1566,1,0,15,15,5,1,stimuli/blank.png,meine,l,WL03LD,2023-08-19_12h29.33.306,openIAT,2023.1.3,Win32,58.53772757,
,,,,,,a,1,1.0176,,,,,,,,,1.0176,1,0,16,16,8,1,stimuli/blank.png,eure,a,WL03LD,2023-08-19_12h29.33.306,openIAT,2023.1.3,Win32,58.53772757,
,,,,,,l,1,2.5717,,,,,,,,,2.5717,1,0,17,17,13,1,stimuli/blank.png,verlogen,l,WL03LD,2023-08-19_12h29.33.306,openIAT,2023.1.3,Win32,58.53772757,
,,,,,,a,1,1.8531,,,,,,,,,1.8531,1,0,18,18,12,1,stimuli/blank.png,fröhlich,a,WL03LD,2023-08-19_12h29.33.306,openIAT,2023.1.3,Win32,58.53772757,
,,,,,,a,1,1.8017,,,,,,,,,1.8017,1,0,19,19,6,1,stimuli/blank.png,euch,a,WL03LD,2023-08-19_12h29.33.306,openIAT,2023.1.3,Win32,58.53772757,
,,,,,,a,1,1.9864,,,,,,,,,1.9864,1,0,0,0,38,1,stimuli/blank.png,human,a,WL03LD,2023-08-19_12h29.33.306,openIAT,2023.1.3,Win32,58.53772757,
,,,,,,a,1,1.6049,,,,,,,,,1.6049,1,0,1,1,10,1,stimuli/blank.png,aktiv,a,WL03LD,2023-08-19_12h29.33.306,openIAT,2023.1.3,Win32,58.53772757,
,,,,,,a,1,1.9516,,,,,,,,,1.9516,1,0,2,2,8,1,stimuli/blank.png,eure,a,WL03LD,2023-08-19_12h29.33.306,openIAT,2023.1.3,Win32,58.53772757,
,,,,,,a,1,0.8676,,,,,,,,,0.8676,1,0,3,3,24,1,stimuli/blank.png,jene,a,WL03LD,2023-08-19_12h29.33.306,openIAT,2023.1.3,Win32,58.53772757,
,,,,,,l,1,3.3862,,,,,,,,,3.3862,1,0,4,4,37,1,stimuli/blank.png,eitel,l,WL03LD,2023-08-19_12h29.33.306,openIAT,2023.1.3,Win32,58.53772757,
,,,,,,l,1,2.4003,,,,,,,,,2.4003,1,0,5,5,39,1,stimuli/blank.png,lustlos,l,WL03LD,2023-08-19_12h29.33.306,openIAT,2023.1.3,Win32,58.53772757,
,,,,,,l,1,1.6175,,,,,,,,,1.6175,1,0,6,6,1,1,stimuli/blank.png,ich,l,WL03LD,2023-08-19_12h29.33.306,openIAT,2023.1.3,Win32,58.53772757,
,,,,,,l,1,1.8695,,,,,,,,,1.8695,1,0,7,7,19,1,stimuli/blank.png,lustlos,l,WL03LD,2023-08-19_12h29.33.306,openIAT,2023.1.3,Win32,58.53772757,
,,,,,,a,0,0.9559,,,,,,,,,0.9559,0,0,8,8,27,1,stimuli/blank.png,eigene,l,WL03LD,2023-08-19_12h29.33.306,openIAT,2023.1.3,Win32,58.53772757,
,,,,,,l,1,2.6553,,,,,,,,,2.6553,1,0,9,9,29,1,stimuli/blank.png,selbst,l,WL03LD,2023-08-19_12h29.33.306,openIAT,2023.1.3,Win32,58.53772757,
,,,,,,l,1,2.8531,,,,,,,,,2.8531,1,0,10,10,33,1,stimuli/blank.png,verlogen,l,WL03LD,2023-08-19_12h29.33.306,openIAT,2023.1.3,Win32,58.53772757,
,,,,,,l,1,1.5195,,,,,,,,,1.5195,1,0,11,11,13,1,stimuli/blank.png,verlogen,l,WL03LD,2023-08-19_12h29.33.306,openIAT,2023.1.3,Win32,58.53772757,
,,,,,,a,1,2.7193,,,,,,,,,2.7193,1,0,12,12,36,1,stimuli/blank.png,begabt,a,WL03LD,2023-08-19_12h29.33.306,openIAT,2023.1.3,Win32,58.53772757,
,,,,,,l,1,1.0511,,,,,,,,,1.0511,1,0,13,13,31,1,stimuli/blank.png,brutal,l,WL03LD,2023-08-19_12h29.33.306,openIAT,2023.1.3,Win32,58.53772757,
,,,,,,l,1,2.0365,,,,,,,,,2.0365,1,0,14,14,3,1,stimuli/blank.png,mir,l,WL03LD,2023-08-19_12h29.33.306,openIAT,2023.1.3,Win32,58.53772757,
,,,,,,a,1,2.7746,,,,,,,,,2.7746,1,0,15,15,30,1,stimuli/blank.png,aktiv,a,WL03LD,2023-08-19_12h29.33.306,openIAT,2023.1.3,Win32,58.53772757,
,,,,,,a,1,0.9016,,,,,,,,,0.9016,1,0,16,16,18,1,stimuli/blank.png,human,a,WL03LD,2023-08-19_12h29.33.306,openIAT,2023.1.3,Win32,58.53772757,
,,,,,,a,1,2.0383,,,,,,,,,2.0383,1,0,17,17,16,1,stimuli/blank.png,begabt,a,WL03LD,2023-08-19_12h29.33.306,openIAT,2023.1.3,Win32,58.53772757,
,,,,,,l,1,2.819,,,,,,,,,2.819,1,0,18,18,7,1,stimuli/blank.png,eigene,l,WL03LD,2023-08-19_12h29.33.306,openIAT,2023.1.3,Win32,58.53772757,
,,,,,,l,1,2.0538,,,,,,,,,2.0538,1,0,19,19,11,1,stimuli/blank.png,brutal,l,WL03LD,2023-08-19_12h29.33.306,openIAT,2023.1.3,Win32,58.53772757,
,,,,,,a,1,0.8845,,,,,,,,,0.8845,1,0,20,20,32,1,stimuli/blank.png,fröhlich,a,WL03LD,2023-08-19_12h29.33.306,openIAT,2023.1.3,Win32,58.53772757,
,,,,,,a,1,2.8747,,,,,,,,,2.8747,1,0,21,21,20,1,stimuli/blank.png,andere,a,WL03LD,2023-08-19_12h29.33.306,openIAT,2023.1.3,Win32,58.53772757,
,,,,,,l,1,1.6349,,,,,,,,,1.6349,1,0,22,22,9,1,stimuli/blank.png,selbst,l,WL03LD,2023-08-19_12h29.33.306,openIAT,2023.1.3,Win32,58.53772757,
,,,,,,a,1,1.1846,,,,,,,,,1.1846,1,0,23,23,4,1,stimuli/blank.png,jene,a,WL03LD,2023-08-19_12h29.33.306,openIAT,2023.1.3,Win32,58.53772757,
,,,,,,l,1,0.8675,,,,,,,,,0.8675,1,0,24,24,25,1,stimuli/blank.png,meine,l,WL03LD,2023-08-19_12h29.33.306,openIAT,2023.1.3,Win32,58.53772757,
,,,,,,l,1,0.5013,,,,,,,,,0.5013,1,0,25,25,5,1,stimuli/blank.png,meine,l,WL03LD,2023-08-19_12h29.33.306,openIAT,2023.1.3,Win32,58.53772757,
,,,,,,a,1,1.3677,,,,,,,,,1.3677,1,0,26,26,0,1,stimuli/blank.png,andere,a,WL03LD,2023-08-19_12h29.33.306,openIAT,2023.1.3,Win32,58.53772757,
,,,,,,l,1,0.6588,,,,,,,,,0.6588,1,0,27,27,21,1,stimuli/blank.png,ich,l,WL03LD,2023-08-19_12h29.33.306,openIAT,2023.1.3,Win32,58.53772757,
,,,,,,a,1,1.2206,,,,,,,,,1.2206,1,0,28,28,6,1,stimuli/blank.png,euch,a,WL03LD,2023-08-19_12h29.33.306,openIAT,2023.1.3,Win32,58.53772757,
,,,,,,a,1,1.2185,,,,,,,,,1.2185,1,0,29,29,34,1,stimuli/blank.png,gerecht,a,WL03LD,2023-08-19_12h29.33.306,openIAT,2023.1.3,Win32,58.53772757,
,,,,,,a,1,2.8099,,,,,,,,,2.8099,1,0,30,30,12,1,stimuli/blank.png,fröhlich,a,WL03LD,2023-08-19_12h29.33.306,openIAT,2023.1.3,Win32,58.53772757,
,,,,,,l,1,1.7851,,,,,,,,,1.7851,1,0,31,31,15,1,stimuli/blank.png,träge,l,WL03LD,2023-08-19_12h29.33.306,openIAT,2023.1.3,Win32,58.53772757,
,,,,,,l,1,1.5183,,,,,,,,,1.5183,1,0,32,32,17,1,stimuli/blank.png,eitel,l,WL03LD,2023-08-19_12h29.33.306,openIAT,2023.1.3,Win32,58.53772757,
,,,,,,a,1,1.0677,,,,,,,,,1.0677,1,0,33,33,2,1,stimuli/blank.png,ihr,a,WL03LD,2023-08-19_12h29.33.306,openIAT,2023.1.3,Win32,58.53772757,
,,,,,,a,0,1.3215,,,,,,,,,1.3215,0,0,34,34,35,1,stimuli/blank.png,träge,l,WL03LD,2023-08-19_12h29.33.306,openIAT,2023.1.3,Win32,58.53772757,
,,,,,,a,1,3.0857,,,,,,,,,3.0857,1,0,35,35,26,1,stimuli/blank.png,euch,a,WL03LD,2023-08-19_12h29.33.306,openIAT,2023.1.3,Win32,58.53772757,
,,,,,,a,1,0.7346,,,,,,,,,0.7346,1,0,36,36,28,1,stimuli/blank.png,eure,a,WL03LD,2023-08-19_12h29.33.306,openIAT,2023.1.3,Win32,58.53772757,
,,,,,,a,1,0.6013,,,,,,,,,0.6013,1,0,37,37,14,1,stimuli/blank.png,gerecht,a,WL03LD,2023-08-19_12h29.33.306,openIAT,2023.1.3,Win32,58.53772757,
,,,,,,a,1,0.9674,,,,,,,,,0.9674,1,0,38,38,22,1,stimuli/blank.png,ihr,a,WL03LD,2023-08-19_12h29.33.306,openIAT,2023.1.3,Win32,58.53772757,
,,,,,,l,1,1.1876,,,,,,,,,1.1876,1,0,39,39,23,1,stimuli/blank.png,mir,l,WL03LD,2023-08-19_12h29.33.306,openIAT,2023.1.3,Win32,58.53772757,
,,,,,,,,,,,,,,,,,,,,,,,,,,,WL03LD,2023-08-19_12h29.33.306,openIAT,2023.1.3,Win32,58.53772757,
