instr_done_touch.x,instr_done_touch.y,instr_done_touch.leftButton,instr_done_touch.midButton,instr_done_touch.rightButton,instr_done_touch.clicked_name,key_resp.keys,key_resp.corr,key_resp.rt,key_resp.duration,touch_resp.x,touch_resp.y,touch_resp.leftButton,touch_resp.midButton,touch_resp.rightButton,touch_resp.time,touch_resp.clicked_name,rt,corr,trials.thisRepN,trials.thisTrialN,trials.thisN,trials.thisIndex,trials.ran,stimImage,stimWord,CorrAns,participant,date,expName,psychopyVersion,OS,frameRate,return_tic
-0.028703704,-0.397222222,1,0,0,instr_done_button,a,1,0.889,,,,,,,,,0.889,1,0,0,0,16,1,stimuli/blank.png,Gold,a,zz99zz,2023-07-17_10h42.25.885,openIAT,2023.1.3,Win32,59.95203837,
,,,,,,a,1,0.866,,,,,,,,,0.866,1,0,1,1,12,1,stimuli/blank.png,Freude,a,zz99zz,2023-07-17_10h42.25.885,openIAT,2023.1.3,Win32,59.95203837,
,,,,,,a,1,0.537,,,,,,,,,0.537,1,0,2,2,22,1,stimuli/blank.png,Vergnügen,a,zz99zz,2023-07-17_10h42.25.885,openIAT,2023.1.3,Win32,59.95203837,
,,,,,,a,1,0.525,,,,,,,,,0.525,1,0,3,3,10,1,stimuli/blank.png,Vergnügen,a,zz99zz,2023-07-17_10h42.25.885,openIAT,2023.1.3,Win32,59.95203837,
,,,,,,a,1,0.553,,,,,,,,,0.553,1,0,4,4,2,1,stimuli/blank.png,Wärme,a,zz99zz,2023-07-17_10h42.25.885,openIAT,2023.1.3,Win32,59.95203837,
,,,,,,l,1,0.567,,,,,,,,,0.567,1,0,5,5,7,1,stimuli/blank.png,Gestank,l,zz99zz,2023-07-17_10h42.25.885,openIAT,2023.1.3,Win32,59.95203837,
,,,,,,l,1,0.736,,,,,,,,,0.736,1,0,6,6,19,1,stimuli/blank.png,Gestank,l,zz99zz,2023-07-17_10h42.25.885,openIAT,2023.1.3,Win32,59.95203837,
,,,,,,l,1,0.551,,,,,,,,,0.551,1,0,7,7,3,1,stimuli/blank.png,Agonie,l,zz99zz,2023-07-17_10h42.25.885,openIAT,2023.1.3,Win32,59.95203837,
,,,,,,l,1,0.418,,,,,,,,,0.418,1,0,8,8,15,1,stimuli/blank.png,Agonie,l,zz99zz,2023-07-17_10h42.25.885,openIAT,2023.1.3,Win32,59.95203837,
,,,,,,l,1,0.484,,,,,,,,,0.484,1,0,9,9,13,1,stimuli/blank.png,Finsternis,l,zz99zz,2023-07-17_10h42.25.885,openIAT,2023.1.3,Win32,59.95203837,
,,,,,,a,1,0.534,,,,,,,,,0.534,1,0,10,10,4,1,stimuli/blank.png,Gold,a,zz99zz,2023-07-17_10h42.25.885,openIAT,2023.1.3,Win32,59.95203837,
,,,,,,a,1,0.571,,,,,,,,,0.571,1,0,11,11,14,1,stimuli/blank.png,Wärme,a,zz99zz,2023-07-17_10h42.25.885,openIAT,2023.1.3,Win32,59.95203837,
,,,,,,a,1,0.648,,,,,,,,,0.648,1,0,12,12,6,1,stimuli/blank.png,Glück,a,zz99zz,2023-07-17_10h42.25.885,openIAT,2023.1.3,Win32,59.95203837,
,,,,,,a,1,0.551,,,,,,,,,0.551,1,0,13,13,0,1,stimuli/blank.png,Freude,a,zz99zz,2023-07-17_10h42.25.885,openIAT,2023.1.3,Win32,59.95203837,
,,,,,,a,1,0.533,,,,,,,,,0.533,1,0,14,14,20,1,stimuli/blank.png,Lächeln,a,zz99zz,2023-07-17_10h42.25.885,openIAT,2023.1.3,Win32,59.95203837,
,,,,,,l,1,0.583,,,,,,,,,0.583,1,0,15,15,9,1,stimuli/blank.png,Schmutz,l,zz99zz,2023-07-17_10h42.25.885,openIAT,2023.1.3,Win32,59.95203837,
,,,,,,l,1,0.568,,,,,,,,,0.568,1,0,16,16,5,1,stimuli/blank.png,Schmerz,l,zz99zz,2023-07-17_10h42.25.885,openIAT,2023.1.3,Win32,59.95203837,
,,,,,,a,1,0.904,,,,,,,,,0.904,1,0,17,17,18,1,stimuli/blank.png,Glück,a,zz99zz,2023-07-17_10h42.25.885,openIAT,2023.1.3,Win32,59.95203837,
,,,,,,l,1,0.618,,,,,,,,,0.618,1,0,18,18,23,1,stimuli/blank.png,Tod,l,zz99zz,2023-07-17_10h42.25.885,openIAT,2023.1.3,Win32,59.95203837,
,,,,,,l,1,0.599,,,,,,,,,0.599,1,0,19,19,17,1,stimuli/blank.png,Schmerz,l,zz99zz,2023-07-17_10h42.25.885,openIAT,2023.1.3,Win32,59.95203837,
,,,,,,l,1,0.6,,,,,,,,,0.6,1,0,20,20,21,1,stimuli/blank.png,Schmutz,l,zz99zz,2023-07-17_10h42.25.885,openIAT,2023.1.3,Win32,59.95203837,
,,,,,,a,1,0.6,,,,,,,,,0.6,1,0,21,21,8,1,stimuli/blank.png,Lächeln,a,zz99zz,2023-07-17_10h42.25.885,openIAT,2023.1.3,Win32,59.95203837,
,,,,,,l,1,0.566,,,,,,,,,0.566,1,0,22,22,1,1,stimuli/blank.png,Finsternis,l,zz99zz,2023-07-17_10h42.25.885,openIAT,2023.1.3,Win32,59.95203837,
,,,,,,l,1,0.583,,,,,,,,,0.583,1,0,23,23,11,1,stimuli/blank.png,Tod,l,zz99zz,2023-07-17_10h42.25.885,openIAT,2023.1.3,Win32,59.95203837,
,,,,,,l,1,0.706,,,,,,,,,0.706,1,0,0,0,14,1,stimuli/blank.png,eure,l,zz99zz,2023-07-17_10h42.25.885,openIAT,2023.1.3,Win32,59.95203837,
,,,,,,l,1,0.601,,,,,,,,,0.601,1,0,1,1,4,1,stimuli/blank.png,ihr,l,zz99zz,2023-07-17_10h42.25.885,openIAT,2023.1.3,Win32,59.95203837,
,,,,,,a,0,0.653,,,,,,,,,0.653,0,0,2,2,6,1,stimuli/blank.png,du,l,zz99zz,2023-07-17_10h42.25.885,openIAT,2023.1.3,Win32,59.95203837,
,,,,,,a,1,0.503,,,,,,,,,0.503,1,0,3,3,23,1,stimuli/blank.png,ich selbst,a,zz99zz,2023-07-17_10h42.25.885,openIAT,2023.1.3,Win32,59.95203837,
,,,,,,a,1,0.457,,,,,,,,,0.457,1,0,4,4,1,1,stimuli/blank.png,ich,a,zz99zz,2023-07-17_10h42.25.885,openIAT,2023.1.3,Win32,59.95203837,
,,,,,,a,1,0.55,,,,,,,,,0.55,1,0,5,5,19,1,stimuli/blank.png,meine,a,zz99zz,2023-07-17_10h42.25.885,openIAT,2023.1.3,Win32,59.95203837,
,,,,,,a,1,0.533,,,,,,,,,0.533,1,0,6,6,13,1,stimuli/blank.png,ich,a,zz99zz,2023-07-17_10h42.25.885,openIAT,2023.1.3,Win32,59.95203837,
,,,,,,l,1,0.566,,,,,,,,,0.566,1,0,7,7,0,1,stimuli/blank.png,sie,l,zz99zz,2023-07-17_10h42.25.885,openIAT,2023.1.3,Win32,59.95203837,
,,,,,,l,1,0.505,,,,,,,,,0.505,1,0,8,8,2,1,stimuli/blank.png,eure,l,zz99zz,2023-07-17_10h42.25.885,openIAT,2023.1.3,Win32,59.95203837,
,,,,,,a,0,0.616,,,,,,,,,0.616,0,0,9,9,20,1,stimuli/blank.png,deine,l,zz99zz,2023-07-17_10h42.25.885,openIAT,2023.1.3,Win32,59.95203837,
,,,,,,a,0,0.384,,,,,,,,,0.384,0,0,10,10,12,1,stimuli/blank.png,sie,l,zz99zz,2023-07-17_10h42.25.885,openIAT,2023.1.3,Win32,59.95203837,
,,,,,,a,1,0.383,,,,,,,,,0.383,1,0,11,11,11,1,stimuli/blank.png,ich selbst,a,zz99zz,2023-07-17_10h42.25.885,openIAT,2023.1.3,Win32,59.95203837,
,,,,,,l,0,0.433,,,,,,,,,0.433,0,0,12,12,7,1,stimuli/blank.png,meine,a,zz99zz,2023-07-17_10h42.25.885,openIAT,2023.1.3,Win32,59.95203837,
,,,,,,a,0,0.419,,,,,,,,,0.419,0,0,13,13,18,1,stimuli/blank.png,du,l,zz99zz,2023-07-17_10h42.25.885,openIAT,2023.1.3,Win32,59.95203837,
,,,,,,a,1,0.579,,,,,,,,,0.579,1,0,14,14,3,1,stimuli/blank.png,mich,a,zz99zz,2023-07-17_10h42.25.885,openIAT,2023.1.3,Win32,59.95203837,
,,,,,,l,1,0.767,,,,,,,,,0.767,1,0,15,15,16,1,stimuli/blank.png,ihr,l,zz99zz,2023-07-17_10h42.25.885,openIAT,2023.1.3,Win32,59.95203837,
,,,,,,l,1,0.606,,,,,,,,,0.606,1,0,16,16,22,1,stimuli/blank.png,andere,l,zz99zz,2023-07-17_10h42.25.885,openIAT,2023.1.3,Win32,59.95203837,
,,,,,,a,1,0.584,,,,,,,,,0.584,1,0,17,17,9,1,stimuli/blank.png,mir,a,zz99zz,2023-07-17_10h42.25.885,openIAT,2023.1.3,Win32,59.95203837,
,,,,,,a,1,0.503,,,,,,,,,0.503,1,0,18,18,21,1,stimuli/blank.png,mir,a,zz99zz,2023-07-17_10h42.25.885,openIAT,2023.1.3,Win32,59.95203837,
,,,,,,a,1,0.454,,,,,,,,,0.454,1,0,19,19,5,1,stimuli/blank.png,mein,a,zz99zz,2023-07-17_10h42.25.885,openIAT,2023.1.3,Win32,59.95203837,
,,,,,,a,1,0.37,,,,,,,,,0.37,1,0,20,20,17,1,stimuli/blank.png,mein,a,zz99zz,2023-07-17_10h42.25.885,openIAT,2023.1.3,Win32,59.95203837,
,,,,,,l,1,0.985,,,,,,,,,0.985,1,0,21,21,8,1,stimuli/blank.png,deine,l,zz99zz,2023-07-17_10h42.25.885,openIAT,2023.1.3,Win32,59.95203837,
,,,,,,a,1,0.965,,,,,,,,,0.965,1,0,22,22,15,1,stimuli/blank.png,mich,a,zz99zz,2023-07-17_10h42.25.885,openIAT,2023.1.3,Win32,59.95203837,
,,,,,,l,1,0.754,,,,,,,,,0.754,1,0,23,23,10,1,stimuli/blank.png,andere,l,zz99zz,2023-07-17_10h42.25.885,openIAT,2023.1.3,Win32,59.95203837,
,,,,,,l,1,0.904,,,,,,,,,0.904,1,0,0,0,0,1,stimuli/blank.png,sie,l,zz99zz,2023-07-17_10h42.25.885,openIAT,2023.1.3,Win32,59.95203837,
,,,,,,a,1,0.568,,,,,,,,,0.568,1,0,1,1,20,1,stimuli/blank.png,Lächeln,a,zz99zz,2023-07-17_10h42.25.885,openIAT,2023.1.3,Win32,59.95203837,
,,,,,,l,1,0.917,,,,,,,,,0.917,1,0,2,2,23,1,stimuli/blank.png,Tod,l,zz99zz,2023-07-17_10h42.25.885,openIAT,2023.1.3,Win32,59.95203837,
,,,,,,l,1,0.634,,,,,,,,,0.634,1,0,3,3,6,1,stimuli/blank.png,du,l,zz99zz,2023-07-17_10h42.25.885,openIAT,2023.1.3,Win32,59.95203837,
,,,,,,l,1,0.634,,,,,,,,,0.634,1,0,4,4,19,1,stimuli/blank.png,Gestank,l,zz99zz,2023-07-17_10h42.25.885,openIAT,2023.1.3,Win32,59.95203837,
,,,,,,l,0,0.5,,,,,,,,,0.5,0,0,5,5,5,1,stimuli/blank.png,mein,a,zz99zz,2023-07-17_10h42.25.885,openIAT,2023.1.3,Win32,59.95203837,
,,,,,,l,0,0.519,,,,,,,,,0.519,0,0,6,6,16,1,stimuli/blank.png,Gold,a,zz99zz,2023-07-17_10h42.25.885,openIAT,2023.1.3,Win32,59.95203837,
,,,,,,a,1,0.535,,,,,,,,,0.535,1,0,7,7,9,1,stimuli/blank.png,mir,a,zz99zz,2023-07-17_10h42.25.885,openIAT,2023.1.3,Win32,59.95203837,
,,,,,,l,0,0.634,,,,,,,,,0.634,0,0,8,8,22,1,stimuli/blank.png,Vergnügen,a,zz99zz,2023-07-17_10h42.25.885,openIAT,2023.1.3,Win32,59.95203837,
,,,,,,a,0,0.547,,,,,,,,,0.547,0,0,9,9,15,1,stimuli/blank.png,Agonie,l,zz99zz,2023-07-17_10h42.25.885,openIAT,2023.1.3,Win32,59.95203837,
,,,,,,l,1,0.623,,,,,,,,,0.623,1,0,10,10,4,1,stimuli/blank.png,ihr,l,zz99zz,2023-07-17_10h42.25.885,openIAT,2023.1.3,Win32,59.95203837,
,,,,,,a,1,0.487,,,,,,,,,0.487,1,0,11,11,7,1,stimuli/blank.png,meine,a,zz99zz,2023-07-17_10h42.25.885,openIAT,2023.1.3,Win32,59.95203837,
,,,,,,a,1,0.65,,,,,,,,,0.65,1,0,12,12,11,1,stimuli/blank.png,ich selbst,a,zz99zz,2023-07-17_10h42.25.885,openIAT,2023.1.3,Win32,59.95203837,
,,,,,,a,1,0.674,,,,,,,,,0.674,1,0,13,13,3,1,stimuli/blank.png,mich,a,zz99zz,2023-07-17_10h42.25.885,openIAT,2023.1.3,Win32,59.95203837,
,,,,,,l,1,0.583,,,,,,,,,0.583,1,0,14,14,10,1,stimuli/blank.png,andere,l,zz99zz,2023-07-17_10h42.25.885,openIAT,2023.1.3,Win32,59.95203837,
,,,,,,l,1,1.985,,,,,,,,,1.985,1,0,15,15,17,1,stimuli/blank.png,Schmerz,l,zz99zz,2023-07-17_10h42.25.885,openIAT,2023.1.3,Win32,59.95203837,
,,,,,,a,1,0.537,,,,,,,,,0.537,1,0,16,16,18,1,stimuli/blank.png,Glück,a,zz99zz,2023-07-17_10h42.25.885,openIAT,2023.1.3,Win32,59.95203837,
,,,,,,a,1,0.884,,,,,,,,,0.884,1,0,17,17,14,1,stimuli/blank.png,Wärme,a,zz99zz,2023-07-17_10h42.25.885,openIAT,2023.1.3,Win32,59.95203837,
,,,,,,l,1,0.699,,,,,,,,,0.699,1,0,18,18,13,1,stimuli/blank.png,Finsternis,l,zz99zz,2023-07-17_10h42.25.885,openIAT,2023.1.3,Win32,59.95203837,
,,,,,,l,1,0.549,,,,,,,,,0.549,1,0,19,19,21,1,stimuli/blank.png,Schmutz,l,zz99zz,2023-07-17_10h42.25.885,openIAT,2023.1.3,Win32,59.95203837,
,,,,,,a,1,0.768,,,,,,,,,0.768,1,0,20,20,12,1,stimuli/blank.png,Freude,a,zz99zz,2023-07-17_10h42.25.885,openIAT,2023.1.3,Win32,59.95203837,
,,,,,,l,1,0.801,,,,,,,,,0.801,1,0,21,21,8,1,stimuli/blank.png,deine,l,zz99zz,2023-07-17_10h42.25.885,openIAT,2023.1.3,Win32,59.95203837,
,,,,,,l,1,0.717,,,,,,,,,0.717,1,0,22,22,2,1,stimuli/blank.png,eure,l,zz99zz,2023-07-17_10h42.25.885,openIAT,2023.1.3,Win32,59.95203837,
,,,,,,a,1,0.532,,,,,,,,,0.532,1,0,23,23,1,1,stimuli/blank.png,ich,a,zz99zz,2023-07-17_10h42.25.885,openIAT,2023.1.3,Win32,59.95203837,
,,,,,,a,1,0.602,,,,,,,,,0.602,1,0,0,0,27,1,stimuli/blank.png,mich,a,zz99zz,2023-07-17_10h42.25.885,openIAT,2023.1.3,Win32,59.95203837,
,,,,,,l,1,0.55,,,,,,,,,0.55,1,0,1,1,10,1,stimuli/blank.png,andere,l,zz99zz,2023-07-17_10h42.25.885,openIAT,2023.1.3,Win32,59.95203837,
,,,,,,a,1,0.55,,,,,,,,,0.55,1,0,2,2,22,1,stimuli/blank.png,Vergnügen,a,zz99zz,2023-07-17_10h42.25.885,openIAT,2023.1.3,Win32,59.95203837,
,,,,,,l,1,0.584,,,,,,,,,0.584,1,0,3,3,43,1,stimuli/blank.png,Gestank,l,zz99zz,2023-07-17_10h42.25.885,openIAT,2023.1.3,Win32,59.95203837,
,,,,,,a,1,0.651,,,,,,,,,0.651,1,0,4,4,18,1,stimuli/blank.png,Glück,a,zz99zz,2023-07-17_10h42.25.885,openIAT,2023.1.3,Win32,59.95203837,
,,,,,,l,1,0.726,,,,,,,,,0.726,1,0,5,5,32,1,stimuli/blank.png,deine,l,zz99zz,2023-07-17_10h42.25.885,openIAT,2023.1.3,Win32,59.95203837,
,,,,,,a,0,0.584,,,,,,,,,0.584,0,0,6,6,15,1,stimuli/blank.png,Agonie,l,zz99zz,2023-07-17_10h42.25.885,openIAT,2023.1.3,Win32,59.95203837,
,,,,,,l,1,0.683,,,,,,,,,0.683,1,0,7,7,2,1,stimuli/blank.png,eure,l,zz99zz,2023-07-17_10h42.25.885,openIAT,2023.1.3,Win32,59.95203837,
,,,,,,l,1,0.553,,,,,,,,,0.553,1,0,8,8,13,1,stimuli/blank.png,Finsternis,l,zz99zz,2023-07-17_10h42.25.885,openIAT,2023.1.3,Win32,59.95203837,
,,,,,,l,1,0.583,,,,,,,,,0.583,1,0,9,9,4,1,stimuli/blank.png,ihr,l,zz99zz,2023-07-17_10h42.25.885,openIAT,2023.1.3,Win32,59.95203837,
,,,,,,a,0,0.518,,,,,,,,,0.518,0,0,10,10,0,1,stimuli/blank.png,sie,l,zz99zz,2023-07-17_10h42.25.885,openIAT,2023.1.3,Win32,59.95203837,
,,,,,,a,1,0.518,,,,,,,,,0.518,1,0,11,11,33,1,stimuli/blank.png,mir,a,zz99zz,2023-07-17_10h42.25.885,openIAT,2023.1.3,Win32,59.95203837,
,,,,,,l,1,0.672,,,,,,,,,0.672,1,0,12,12,23,1,stimuli/blank.png,Tod,l,zz99zz,2023-07-17_10h42.25.885,openIAT,2023.1.3,Win32,59.95203837,
,,,,,,l,1,0.7,,,,,,,,,0.7,1,0,13,13,30,1,stimuli/blank.png,du,l,zz99zz,2023-07-17_10h42.25.885,openIAT,2023.1.3,Win32,59.95203837,
,,,,,,a,1,0.738,,,,,,,,,0.738,1,0,14,14,1,1,stimuli/blank.png,ich,a,zz99zz,2023-07-17_10h42.25.885,openIAT,2023.1.3,Win32,59.95203837,
,,,,,,a,1,0.583,,,,,,,,,0.583,1,0,15,15,5,1,stimuli/blank.png,mein,a,zz99zz,2023-07-17_10h42.25.885,openIAT,2023.1.3,Win32,59.95203837,
,,,,,,l,0,0.55,,,,,,,,,0.55,0,0,16,16,14,1,stimuli/blank.png,Wärme,a,zz99zz,2023-07-17_10h42.25.885,openIAT,2023.1.3,Win32,59.95203837,
,,,,,,a,1,0.767,,,,,,,,,0.767,1,0,17,17,29,1,stimuli/blank.png,mein,a,zz99zz,2023-07-17_10h42.25.885,openIAT,2023.1.3,Win32,59.95203837,
,,,,,,a,1,0.863,,,,,,,,,0.863,1,0,18,18,3,1,stimuli/blank.png,mich,a,zz99zz,2023-07-17_10h42.25.885,openIAT,2023.1.3,Win32,59.95203837,
,,,,,,l,1,1,,,,,,,,,1,1,0,19,19,21,1,stimuli/blank.png,Schmutz,l,zz99zz,2023-07-17_10h42.25.885,openIAT,2023.1.3,Win32,59.95203837,
,,,,,,a,1,0.879,,,,,,,,,0.879,1,0,20,20,44,1,stimuli/blank.png,Lächeln,a,zz99zz,2023-07-17_10h42.25.885,openIAT,2023.1.3,Win32,59.95203837,
,,,,,,a,1,0.816,,,,,,,,,0.816,1,0,21,21,7,1,stimuli/blank.png,meine,a,zz99zz,2023-07-17_10h42.25.885,openIAT,2023.1.3,Win32,59.95203837,
,,,,,,l,1,0.849,,,,,,,,,0.849,1,0,22,22,28,1,stimuli/blank.png,ihr,l,zz99zz,2023-07-17_10h42.25.885,openIAT,2023.1.3,Win32,59.95203837,
,,,,,,l,1,0.65,,,,,,,,,0.65,1,0,23,23,17,1,stimuli/blank.png,Schmerz,l,zz99zz,2023-07-17_10h42.25.885,openIAT,2023.1.3,Win32,59.95203837,
,,,,,,l,1,0.805,,,,,,,,,0.805,1,0,24,24,34,1,stimuli/blank.png,andere,l,zz99zz,2023-07-17_10h42.25.885,openIAT,2023.1.3,Win32,59.95203837,
,,,,,,a,1,0.629,,,,,,,,,0.629,1,0,25,25,11,1,stimuli/blank.png,ich selbst,a,zz99zz,2023-07-17_10h42.25.885,openIAT,2023.1.3,Win32,59.95203837,
,,,,,,a,1,0.918,,,,,,,,,0.918,1,0,26,26,36,1,stimuli/blank.png,Freude,a,zz99zz,2023-07-17_10h42.25.885,openIAT,2023.1.3,Win32,59.95203837,
,,,,,,l,1,0.598,,,,,,,,,0.598,1,0,27,27,41,1,stimuli/blank.png,Schmerz,l,zz99zz,2023-07-17_10h42.25.885,openIAT,2023.1.3,Win32,59.95203837,
,,,,,,l,1,0.552,,,,,,,,,0.552,1,0,28,28,45,1,stimuli/blank.png,Schmutz,l,zz99zz,2023-07-17_10h42.25.885,openIAT,2023.1.3,Win32,59.95203837,
,,,,,,a,1,0.649,,,,,,,,,0.649,1,0,29,29,42,1,stimuli/blank.png,Glück,a,zz99zz,2023-07-17_10h42.25.885,openIAT,2023.1.3,Win32,59.95203837,
,,,,,,l,1,0.566,,,,,,,,,0.566,1,0,30,30,19,1,stimuli/blank.png,Gestank,l,zz99zz,2023-07-17_10h42.25.885,openIAT,2023.1.3,Win32,59.95203837,
,,,,,,l,1,0.863,,,,,,,,,0.863,1,0,31,31,8,1,stimuli/blank.png,deine,l,zz99zz,2023-07-17_10h42.25.885,openIAT,2023.1.3,Win32,59.95203837,
,,,,,,l,1,0.783,,,,,,,,,0.783,1,0,32,32,37,1,stimuli/blank.png,Finsternis,l,zz99zz,2023-07-17_10h42.25.885,openIAT,2023.1.3,Win32,59.95203837,
,,,,,,a,1,0.6,,,,,,,,,0.6,1,0,33,33,31,1,stimuli/blank.png,meine,a,zz99zz,2023-07-17_10h42.25.885,openIAT,2023.1.3,Win32,59.95203837,
,,,,,,l,1,1.068,,,,,,,,,1.068,1,0,34,34,6,1,stimuli/blank.png,du,l,zz99zz,2023-07-17_10h42.25.885,openIAT,2023.1.3,Win32,59.95203837,
,,,,,,l,1,0.602,,,,,,,,,0.602,1,0,35,35,26,1,stimuli/blank.png,eure,l,zz99zz,2023-07-17_10h42.25.885,openIAT,2023.1.3,Win32,59.95203837,
,,,,,,a,1,0.762,,,,,,,,,0.762,1,0,36,36,25,1,stimuli/blank.png,ich,a,zz99zz,2023-07-17_10h42.25.885,openIAT,2023.1.3,Win32,59.95203837,
,,,,,,a,1,0.581,,,,,,,,,0.581,1,0,37,37,35,1,stimuli/blank.png,ich selbst,a,zz99zz,2023-07-17_10h42.25.885,openIAT,2023.1.3,Win32,59.95203837,
,,,,,,a,1,0.867,,,,,,,,,0.867,1,0,38,38,38,1,stimuli/blank.png,Wärme,a,zz99zz,2023-07-17_10h42.25.885,openIAT,2023.1.3,Win32,59.95203837,
,,,,,,l,1,0.6,,,,,,,,,0.6,1,0,39,39,47,1,stimuli/blank.png,Tod,l,zz99zz,2023-07-17_10h42.25.885,openIAT,2023.1.3,Win32,59.95203837,
,,,,,,l,0,0.499,,,,,,,,,0.499,0,0,40,40,40,1,stimuli/blank.png,Gold,a,zz99zz,2023-07-17_10h42.25.885,openIAT,2023.1.3,Win32,59.95203837,
,,,,,,a,1,0.624,,,,,,,,,0.624,1,0,41,41,16,1,stimuli/blank.png,Gold,a,zz99zz,2023-07-17_10h42.25.885,openIAT,2023.1.3,Win32,59.95203837,
,,,,,,a,1,0.718,,,,,,,,,0.718,1,0,42,42,46,1,stimuli/blank.png,Vergnügen,a,zz99zz,2023-07-17_10h42.25.885,openIAT,2023.1.3,Win32,59.95203837,
,,,,,,l,1,0.719,,,,,,,,,0.719,1,0,43,43,39,1,stimuli/blank.png,Agonie,l,zz99zz,2023-07-17_10h42.25.885,openIAT,2023.1.3,Win32,59.95203837,
,,,,,,a,1,0.634,,,,,,,,,0.634,1,0,44,44,9,1,stimuli/blank.png,mir,a,zz99zz,2023-07-17_10h42.25.885,openIAT,2023.1.3,Win32,59.95203837,
,,,,,,a,1,0.737,,,,,,,,,0.737,1,0,45,45,20,1,stimuli/blank.png,Lächeln,a,zz99zz,2023-07-17_10h42.25.885,openIAT,2023.1.3,Win32,59.95203837,
,,,,,,l,1,0.67,,,,,,,,,0.67,1,0,46,46,24,1,stimuli/blank.png,sie,l,zz99zz,2023-07-17_10h42.25.885,openIAT,2023.1.3,Win32,59.95203837,
,,,,,,a,1,0.838,,,,,,,,,0.838,1,0,47,47,12,1,stimuli/blank.png,Freude,a,zz99zz,2023-07-17_10h42.25.885,openIAT,2023.1.3,Win32,59.95203837,
,,,,,,a,1,0.7,,,,,,,,,0.7,1,0,0,0,22,1,stimuli/blank.png,andere,a,zz99zz,2023-07-17_10h42.25.885,openIAT,2023.1.3,Win32,59.95203837,
,,,,,,l,1,0.75,,,,,,,,,0.75,1,0,1,1,9,1,stimuli/blank.png,mir,l,zz99zz,2023-07-17_10h42.25.885,openIAT,2023.1.3,Win32,59.95203837,
,,,,,,a,1,0.814,,,,,,,,,0.814,1,0,2,2,8,1,stimuli/blank.png,deine,a,zz99zz,2023-07-17_10h42.25.885,openIAT,2023.1.3,Win32,59.95203837,
,,,,,,l,1,0.783,,,,,,,,,0.783,1,0,3,3,19,1,stimuli/blank.png,meine,l,zz99zz,2023-07-17_10h42.25.885,openIAT,2023.1.3,Win32,59.95203837,
,,,,,,l,1,0.587,,,,,,,,,0.587,1,0,4,4,7,1,stimuli/blank.png,meine,l,zz99zz,2023-07-17_10h42.25.885,openIAT,2023.1.3,Win32,59.95203837,
,,,,,,l,1,0.783,,,,,,,,,0.783,1,0,5,5,3,1,stimuli/blank.png,mich,l,zz99zz,2023-07-17_10h42.25.885,openIAT,2023.1.3,Win32,59.95203837,
,,,,,,l,1,0.599,,,,,,,,,0.599,1,0,6,6,13,1,stimuli/blank.png,ich,l,zz99zz,2023-07-17_10h42.25.885,openIAT,2023.1.3,Win32,59.95203837,
,,,,,,a,1,0.788,,,,,,,,,0.788,1,0,7,7,18,1,stimuli/blank.png,du,a,zz99zz,2023-07-17_10h42.25.885,openIAT,2023.1.3,Win32,59.95203837,
,,,,,,l,1,0.584,,,,,,,,,0.584,1,0,8,8,15,1,stimuli/blank.png,mich,l,zz99zz,2023-07-17_10h42.25.885,openIAT,2023.1.3,Win32,59.95203837,
,,,,,,a,1,0.885,,,,,,,,,0.885,1,0,9,9,4,1,stimuli/blank.png,ihr,a,zz99zz,2023-07-17_10h42.25.885,openIAT,2023.1.3,Win32,59.95203837,
,,,,,,l,1,0.518,,,,,,,,,0.518,1,0,10,10,11,1,stimuli/blank.png,ich selbst,l,zz99zz,2023-07-17_10h42.25.885,openIAT,2023.1.3,Win32,59.95203837,
,,,,,,a,1,0.999,,,,,,,,,0.999,1,0,11,11,12,1,stimuli/blank.png,sie,a,zz99zz,2023-07-17_10h42.25.885,openIAT,2023.1.3,Win32,59.95203837,
,,,,,,l,1,0.623,,,,,,,,,0.623,1,0,12,12,5,1,stimuli/blank.png,mein,l,zz99zz,2023-07-17_10h42.25.885,openIAT,2023.1.3,Win32,59.95203837,
,,,,,,l,1,0.554,,,,,,,,,0.554,1,0,13,13,17,1,stimuli/blank.png,mein,l,zz99zz,2023-07-17_10h42.25.885,openIAT,2023.1.3,Win32,59.95203837,
,,,,,,a,1,0.801,,,,,,,,,0.801,1,0,14,14,14,1,stimuli/blank.png,eure,a,zz99zz,2023-07-17_10h42.25.885,openIAT,2023.1.3,Win32,59.95203837,
,,,,,,a,1,0.682,,,,,,,,,0.682,1,0,15,15,6,1,stimuli/blank.png,du,a,zz99zz,2023-07-17_10h42.25.885,openIAT,2023.1.3,Win32,59.95203837,
,,,,,,l,1,0.586,,,,,,,,,0.586,1,0,16,16,21,1,stimuli/blank.png,mir,l,zz99zz,2023-07-17_10h42.25.885,openIAT,2023.1.3,Win32,59.95203837,
,,,,,,a,1,1.331,,,,,,,,,1.331,1,0,17,17,20,1,stimuli/blank.png,deine,a,zz99zz,2023-07-17_10h42.25.885,openIAT,2023.1.3,Win32,59.95203837,
,,,,,,a,1,0.717,,,,,,,,,0.717,1,0,18,18,10,1,stimuli/blank.png,andere,a,zz99zz,2023-07-17_10h42.25.885,openIAT,2023.1.3,Win32,59.95203837,
,,,,,,l,1,0.721,,,,,,,,,0.721,1,0,19,19,23,1,stimuli/blank.png,ich selbst,l,zz99zz,2023-07-17_10h42.25.885,openIAT,2023.1.3,Win32,59.95203837,
,,,,,,a,1,1.132,,,,,,,,,1.132,1,0,20,20,16,1,stimuli/blank.png,ihr,a,zz99zz,2023-07-17_10h42.25.885,openIAT,2023.1.3,Win32,59.95203837,
,,,,,,l,1,0.568,,,,,,,,,0.568,1,0,21,21,1,1,stimuli/blank.png,ich,l,zz99zz,2023-07-17_10h42.25.885,openIAT,2023.1.3,Win32,59.95203837,
,,,,,,a,1,0.918,,,,,,,,,0.918,1,0,22,22,2,1,stimuli/blank.png,eure,a,zz99zz,2023-07-17_10h42.25.885,openIAT,2023.1.3,Win32,59.95203837,
,,,,,,a,1,0.754,,,,,,,,,0.754,1,0,23,23,0,1,stimuli/blank.png,sie,a,zz99zz,2023-07-17_10h42.25.885,openIAT,2023.1.3,Win32,59.95203837,
,,,,,,a,1,0.671,,,,,,,,,0.671,1,0,0,0,4,1,stimuli/blank.png,ihr,a,zz99zz,2023-07-17_10h42.25.885,openIAT,2023.1.3,Win32,59.95203837,
,,,,,,a,1,0.567,,,,,,,,,0.567,1,0,1,1,10,1,stimuli/blank.png,andere,a,zz99zz,2023-07-17_10h42.25.885,openIAT,2023.1.3,Win32,59.95203837,
,,,,,,l,1,1.435,,,,,,,,,1.435,1,0,2,2,23,1,stimuli/blank.png,Tod,l,zz99zz,2023-07-17_10h42.25.885,openIAT,2023.1.3,Win32,59.95203837,
,,,,,,l,1,1.034,,,,,,,,,1.034,1,0,3,3,7,1,stimuli/blank.png,meine,l,zz99zz,2023-07-17_10h42.25.885,openIAT,2023.1.3,Win32,59.95203837,
,,,,,,a,1,0.685,,,,,,,,,0.685,1,0,4,4,6,1,stimuli/blank.png,du,a,zz99zz,2023-07-17_10h42.25.885,openIAT,2023.1.3,Win32,59.95203837,
,,,,,,a,1,0.913,,,,,,,,,0.913,1,0,5,5,18,1,stimuli/blank.png,Glück,a,zz99zz,2023-07-17_10h42.25.885,openIAT,2023.1.3,Win32,59.95203837,
,,,,,,l,1,0.532,,,,,,,,,0.532,1,0,6,6,19,1,stimuli/blank.png,Gestank,l,zz99zz,2023-07-17_10h42.25.885,openIAT,2023.1.3,Win32,59.95203837,
,,,,,,a,1,0.611,,,,,,,,,0.611,1,0,7,7,22,1,stimuli/blank.png,Vergnügen,a,zz99zz,2023-07-17_10h42.25.885,openIAT,2023.1.3,Win32,59.95203837,
,,,,,,a,1,0.717,,,,,,,,,0.717,1,0,8,8,20,1,stimuli/blank.png,Lächeln,a,zz99zz,2023-07-17_10h42.25.885,openIAT,2023.1.3,Win32,59.95203837,
,,,,,,l,1,0.816,,,,,,,,,0.816,1,0,9,9,5,1,stimuli/blank.png,mein,l,zz99zz,2023-07-17_10h42.25.885,openIAT,2023.1.3,Win32,59.95203837,
,,,,,,a,0,0.702,,,,,,,,,0.702,0,0,10,10,17,1,stimuli/blank.png,Schmerz,l,zz99zz,2023-07-17_10h42.25.885,openIAT,2023.1.3,Win32,59.95203837,
,,,,,,l,1,1.133,,,,,,,,,1.133,1,0,11,11,11,1,stimuli/blank.png,ich selbst,l,zz99zz,2023-07-17_10h42.25.885,openIAT,2023.1.3,Win32,59.95203837,
,,,,,,l,1,0.528,,,,,,,,,0.528,1,0,12,12,9,1,stimuli/blank.png,mir,l,zz99zz,2023-07-17_10h42.25.885,openIAT,2023.1.3,Win32,59.95203837,
,,,,,,a,1,0.851,,,,,,,,,0.851,1,0,13,13,14,1,stimuli/blank.png,Wärme,a,zz99zz,2023-07-17_10h42.25.885,openIAT,2023.1.3,Win32,59.95203837,
,,,,,,l,1,0.611,,,,,,,,,0.611,1,0,14,14,21,1,stimuli/blank.png,Schmutz,l,zz99zz,2023-07-17_10h42.25.885,openIAT,2023.1.3,Win32,59.95203837,
,,,,,,a,1,0.814,,,,,,,,,0.814,1,0,15,15,16,1,stimuli/blank.png,Gold,a,zz99zz,2023-07-17_10h42.25.885,openIAT,2023.1.3,Win32,59.95203837,
,,,,,,l,1,0.884,,,,,,,,,0.884,1,0,16,16,1,1,stimuli/blank.png,ich,l,zz99zz,2023-07-17_10h42.25.885,openIAT,2023.1.3,Win32,59.95203837,
,,,,,,l,1,0.6,,,,,,,,,0.6,1,0,17,17,3,1,stimuli/blank.png,mich,l,zz99zz,2023-07-17_10h42.25.885,openIAT,2023.1.3,Win32,59.95203837,
,,,,,,a,1,0.835,,,,,,,,,0.835,1,0,18,18,12,1,stimuli/blank.png,Freude,a,zz99zz,2023-07-17_10h42.25.885,openIAT,2023.1.3,Win32,59.95203837,
,,,,,,l,0,0.565,,,,,,,,,0.565,0,0,19,19,8,1,stimuli/blank.png,deine,a,zz99zz,2023-07-17_10h42.25.885,openIAT,2023.1.3,Win32,59.95203837,
,,,,,,a,1,0.734,,,,,,,,,0.734,1,0,20,20,0,1,stimuli/blank.png,sie,a,zz99zz,2023-07-17_10h42.25.885,openIAT,2023.1.3,Win32,59.95203837,
,,,,,,l,1,0.696,,,,,,,,,0.696,1,0,21,21,13,1,stimuli/blank.png,Finsternis,l,zz99zz,2023-07-17_10h42.25.885,openIAT,2023.1.3,Win32,59.95203837,
,,,,,,a,1,1.499,,,,,,,,,1.499,1,0,22,22,2,1,stimuli/blank.png,eure,a,zz99zz,2023-07-17_10h42.25.885,openIAT,2023.1.3,Win32,59.95203837,
,,,,,,l,1,2.1,,,,,,,,,2.1,1,0,23,23,15,1,stimuli/blank.png,Agonie,l,zz99zz,2023-07-17_10h42.25.885,openIAT,2023.1.3,Win32,59.95203837,
,,,,,,a,1,0.751,,,,,,,,,0.751,1,0,0,0,34,1,stimuli/blank.png,andere,a,zz99zz,2023-07-17_10h42.25.885,openIAT,2023.1.3,Win32,59.95203837,
,,,,,,a,1,1.034,,,,,,,,,1.034,1,0,1,1,36,1,stimuli/blank.png,Freude,a,zz99zz,2023-07-17_10h42.25.885,openIAT,2023.1.3,Win32,59.95203837,
,,,,,,l,1,0.852,,,,,,,,,0.852,1,0,2,2,7,1,stimuli/blank.png,meine,l,zz99zz,2023-07-17_10h42.25.885,openIAT,2023.1.3,Win32,59.95203837,
,,,,,,a,1,0.834,,,,,,,,,0.834,1,0,3,3,22,1,stimuli/blank.png,Vergnügen,a,zz99zz,2023-07-17_10h42.25.885,openIAT,2023.1.3,Win32,59.95203837,
,,,,,,l,1,0.584,,,,,,,,,0.584,1,0,4,4,37,1,stimuli/blank.png,Finsternis,l,zz99zz,2023-07-17_10h42.25.885,openIAT,2023.1.3,Win32,59.95203837,
,,,,,,l,1,0.548,,,,,,,,,0.548,1,0,5,5,31,1,stimuli/blank.png,meine,l,zz99zz,2023-07-17_10h42.25.885,openIAT,2023.1.3,Win32,59.95203837,
,,,,,,l,1,0.634,,,,,,,,,0.634,1,0,6,6,43,1,stimuli/blank.png,Gestank,l,zz99zz,2023-07-17_10h42.25.885,openIAT,2023.1.3,Win32,59.95203837,
,,,,,,a,1,0.6,,,,,,,,,0.6,1,0,7,7,38,1,stimuli/blank.png,Wärme,a,zz99zz,2023-07-17_10h42.25.885,openIAT,2023.1.3,Win32,59.95203837,
,,,,,,l,0,0.649,,,,,,,,,0.649,0,0,8,8,30,1,stimuli/blank.png,du,a,zz99zz,2023-07-17_10h42.25.885,openIAT,2023.1.3,Win32,59.95203837,
,,,,,,l,1,0.566,,,,,,,,,0.566,1,0,9,9,9,1,stimuli/blank.png,mir,l,zz99zz,2023-07-17_10h42.25.885,openIAT,2023.1.3,Win32,59.95203837,
,,,,,,l,1,0.633,,,,,,,,,0.633,1,0,10,10,41,1,stimuli/blank.png,Schmerz,l,zz99zz,2023-07-17_10h42.25.885,openIAT,2023.1.3,Win32,59.95203837,
,,,,,,l,1,0.584,,,,,,,,,0.584,1,0,11,11,11,1,stimuli/blank.png,ich selbst,l,zz99zz,2023-07-17_10h42.25.885,openIAT,2023.1.3,Win32,59.95203837,
,,,,,,l,1,0.55,,,,,,,,,0.55,1,0,12,12,19,1,stimuli/blank.png,Gestank,l,zz99zz,2023-07-17_10h42.25.885,openIAT,2023.1.3,Win32,59.95203837,
,,,,,,a,1,0.598,,,,,,,,,0.598,1,0,13,13,12,1,stimuli/blank.png,Freude,a,zz99zz,2023-07-17_10h42.25.885,openIAT,2023.1.3,Win32,59.95203837,
,,,,,,l,1,0.583,,,,,,,,,0.583,1,0,14,14,35,1,stimuli/blank.png,ich selbst,l,zz99zz,2023-07-17_10h42.25.885,openIAT,2023.1.3,Win32,59.95203837,
,,,,,,l,0,0.733,,,,,,,,,0.733,0,0,15,15,26,1,stimuli/blank.png,eure,a,zz99zz,2023-07-17_10h42.25.885,openIAT,2023.1.3,Win32,59.95203837,
,,,,,,a,1,1.257,,,,,,,,,1.257,1,0,16,16,46,1,stimuli/blank.png,Vergnügen,a,zz99zz,2023-07-17_10h42.25.885,openIAT,2023.1.3,Win32,59.95203837,
,,,,,,a,1,2.667,,,,,,,,,2.667,1,0,17,17,20,1,stimuli/blank.png,Lächeln,a,zz99zz,2023-07-17_10h42.25.885,openIAT,2023.1.3,Win32,59.95203837,
,,,,,,l,1,0.588,,,,,,,,,0.588,1,0,18,18,45,1,stimuli/blank.png,Schmutz,l,zz99zz,2023-07-17_10h42.25.885,openIAT,2023.1.3,Win32,59.95203837,
,,,,,,l,1,1.067,,,,,,,,,1.067,1,0,19,19,33,1,stimuli/blank.png,mir,l,zz99zz,2023-07-17_10h42.25.885,openIAT,2023.1.3,Win32,59.95203837,
,,,,,,a,1,0.803,,,,,,,,,0.803,1,0,20,20,28,1,stimuli/blank.png,ihr,a,zz99zz,2023-07-17_10h42.25.885,openIAT,2023.1.3,Win32,59.95203837,
,,,,,,a,0,0.817,,,,,,,,,0.817,0,0,21,21,39,1,stimuli/blank.png,Agonie,l,zz99zz,2023-07-17_10h42.25.885,openIAT,2023.1.3,Win32,59.95203837,
,,,,,,l,1,0.783,,,,,,,,,0.783,1,0,22,22,23,1,stimuli/blank.png,Tod,l,zz99zz,2023-07-17_10h42.25.885,openIAT,2023.1.3,Win32,59.95203837,
,,,,,,l,0,0.695,,,,,,,,,0.695,0,0,23,23,0,1,stimuli/blank.png,sie,a,zz99zz,2023-07-17_10h42.25.885,openIAT,2023.1.3,Win32,59.95203837,
,,,,,,a,1,0.832,,,,,,,,,0.832,1,0,24,24,4,1,stimuli/blank.png,ihr,a,zz99zz,2023-07-17_10h42.25.885,openIAT,2023.1.3,Win32,59.95203837,
,,,,,,a,1,0.766,,,,,,,,,0.766,1,0,25,25,8,1,stimuli/blank.png,deine,a,zz99zz,2023-07-17_10h42.25.885,openIAT,2023.1.3,Win32,59.95203837,
,,,,,,a,1,0.717,,,,,,,,,0.717,1,0,26,26,6,1,stimuli/blank.png,du,a,zz99zz,2023-07-17_10h42.25.885,openIAT,2023.1.3,Win32,59.95203837,
,,,,,,l,1,0.699,,,,,,,,,0.699,1,0,27,27,47,1,stimuli/blank.png,Tod,l,zz99zz,2023-07-17_10h42.25.885,openIAT,2023.1.3,Win32,59.95203837,
,,,,,,a,1,0.55,,,,,,,,,0.55,1,0,28,28,42,1,stimuli/blank.png,Glück,a,zz99zz,2023-07-17_10h42.25.885,openIAT,2023.1.3,Win32,59.95203837,
,,,,,,l,1,0.603,,,,,,,,,0.603,1,0,29,29,21,1,stimuli/blank.png,Schmutz,l,zz99zz,2023-07-17_10h42.25.885,openIAT,2023.1.3,Win32,59.95203837,
,,,,,,a,1,1.082,,,,,,,,,1.082,1,0,30,30,24,1,stimuli/blank.png,sie,a,zz99zz,2023-07-17_10h42.25.885,openIAT,2023.1.3,Win32,59.95203837,
,,,,,,a,1,0.851,,,,,,,,,0.851,1,0,31,31,2,1,stimuli/blank.png,eure,a,zz99zz,2023-07-17_10h42.25.885,openIAT,2023.1.3,Win32,59.95203837,
,,,,,,a,1,0.701,,,,,,,,,0.701,1,0,32,32,40,1,stimuli/blank.png,Gold,a,zz99zz,2023-07-17_10h42.25.885,openIAT,2023.1.3,Win32,59.95203837,
,,,,,,a,1,1.02,,,,,,,,,1.02,1,0,33,33,10,1,stimuli/blank.png,andere,a,zz99zz,2023-07-17_10h42.25.885,openIAT,2023.1.3,Win32,59.95203837,
,,,,,,l,1,0.599,,,,,,,,,0.599,1,0,34,34,1,1,stimuli/blank.png,ich,l,zz99zz,2023-07-17_10h42.25.885,openIAT,2023.1.3,Win32,59.95203837,
,,,,,,a,0,0.932,,,,,,,,,0.932,0,0,35,35,13,1,stimuli/blank.png,Finsternis,l,zz99zz,2023-07-17_10h42.25.885,openIAT,2023.1.3,Win32,59.95203837,
,,,,,,l,1,0.615,,,,,,,,,0.615,1,0,36,36,29,1,stimuli/blank.png,mein,l,zz99zz,2023-07-17_10h42.25.885,openIAT,2023.1.3,Win32,59.95203837,
,,,,,,l,1,0.792,,,,,,,,,0.792,1,0,37,37,25,1,stimuli/blank.png,ich,l,zz99zz,2023-07-17_10h42.25.885,openIAT,2023.1.3,Win32,59.95203837,
,,,,,,l,1,0.566,,,,,,,,,0.566,1,0,38,38,5,1,stimuli/blank.png,mein,l,zz99zz,2023-07-17_10h42.25.885,openIAT,2023.1.3,Win32,59.95203837,
,,,,,,l,1,0.538,,,,,,,,,0.538,1,0,39,39,3,1,stimuli/blank.png,mich,l,zz99zz,2023-07-17_10h42.25.885,openIAT,2023.1.3,Win32,59.95203837,
,,,,,,l,1,0.471,,,,,,,,,0.471,1,0,40,40,27,1,stimuli/blank.png,mich,l,zz99zz,2023-07-17_10h42.25.885,openIAT,2023.1.3,Win32,59.95203837,
,,,,,,l,0,0.537,,,,,,,,,0.537,0,0,41,41,32,1,stimuli/blank.png,deine,a,zz99zz,2023-07-17_10h42.25.885,openIAT,2023.1.3,Win32,59.95203837,
,,,,,,a,1,0.56,,,,,,,,,0.56,1,0,42,42,18,1,stimuli/blank.png,Glück,a,zz99zz,2023-07-17_10h42.25.885,openIAT,2023.1.3,Win32,59.95203837,
,,,,,,l,1,0.717,,,,,,,,,0.717,1,0,43,43,17,1,stimuli/blank.png,Schmerz,l,zz99zz,2023-07-17_10h42.25.885,openIAT,2023.1.3,Win32,59.95203837,
,,,,,,a,1,1.234,,,,,,,,,1.234,1,0,44,44,14,1,stimuli/blank.png,Wärme,a,zz99zz,2023-07-17_10h42.25.885,openIAT,2023.1.3,Win32,59.95203837,
,,,,,,a,1,0.634,,,,,,,,,0.634,1,0,45,45,44,1,stimuli/blank.png,Lächeln,a,zz99zz,2023-07-17_10h42.25.885,openIAT,2023.1.3,Win32,59.95203837,
,,,,,,l,1,0.661,,,,,,,,,0.661,1,0,46,46,15,1,stimuli/blank.png,Agonie,l,zz99zz,2023-07-17_10h42.25.885,openIAT,2023.1.3,Win32,59.95203837,
,,,,,,a,1,0.582,,,,,,,,,0.582,1,0,47,47,16,1,stimuli/blank.png,Gold,a,zz99zz,2023-07-17_10h42.25.885,openIAT,2023.1.3,Win32,59.95203837,
,,,,,,,,,,,,,,,,,,,,,,,,,,,zz99zz,2023-07-17_10h42.25.885,openIAT,2023.1.3,Win32,59.95203837,
